Record,Time,Latitude,Longitude,Altitude,Speed,GForceX,GForceY,GForceZ,Lap,GyroX,GyroY,GyroZ
1,0.000,53.3109554,-0.0628274,133.0,3.34,-0.062,-0.026,0.999,0,0.38,-0.23,2.67
2,0.080,53.3109546,-0.0628285,133.1,3.44,-0.072,-0.020,1.004,0,0.65,-0.69,5.66
3,0.160,53.3109537,-0.0628298,133.0,3.56,-0.078,-0.009,1.001,0,0.79,-1.12,8.53
4,0.240,53.3109528,-0.0628309,133.0,3.16,-0.090,0.000,0.998,0,0.65,-1.13,11.18
5,0.320,53.3109518,-0.0628321,133.1,3.56,-0.098,0.006,0.996,0,0.17,-0.96,13.71
6,0.400,53.3109508,-0.0628332,133.1,3.59,-0.086,0.012,0.998,0,-0.58,-0.71,14.29
7,0.480,53.3109499,-0.0628344,133.0,3.85,-0.084,0.009,0.997,0,-1.45,-0.15,14.69
8,0.560,53.3109488,-0.0628356,133.0,3.81,-0.086,0.003,0.998,0,-2.20,0.35,15.06
9,0.640,53.3109478,-0.0628368,133.1,3.61,-0.088,-0.002,0.995,0,-2.98,0.31,15.37
10,0.720,53.3109469,-0.0628379,133.1,3.74,-0.092,-0.006,0.994,0,-3.34,0.29,15.49
11,0.800,53.3109457,-0.0628390,133.1,3.81,-0.098,-0.008,0.992,0,-3.34,0.24,15.19
12,0.880,53.3109446,-0.0628402,133.1,3.95,-0.100,-0.006,0.991,0,-2.63,0.01,14.28
13,0.920,53.3109439,-0.0628409,133.0,4.44,-0.094,-0.007,1.000,0,-1.54,-0.32,13.05
14,1.000,53.3109427,-0.0628422,133.0,4.45,-0.097,-0.012,0.999,0,0.09,-0.25,11.54
15,1.080,53.3109415,-0.0628435,133.0,4.33,-0.102,-0.018,0.997,0,1.86,-0.28,10.46
16,1.200,53.3109396,-0.0628456,133.1,4.66,-0.110,-0.007,0.989,0,3.27,-0.31,9.99
17,1.280,53.3109382,-0.0628467,133.0,4.95,-0.100,0.018,0.984,0,3.29,-0.39,10.30
18,1.360,53.3109368,-0.0628482,133.0,5.06,-0.093,0.037,0.969,0,1.63,-0.28,10.79
19,1.440,53.3109354,-0.0628496,133.0,4.98,-0.096,0.033,0.969,0,0.00,-0.05,11.03
20,1.520,53.3109341,-0.0628508,133.0,4.71,-0.090,0.044,0.983,0,-1.07,-0.18,10.49
21,1.600,53.3109326,-0.0628522,133.0,5.13,-0.082,0.047,0.984,0,-1.78,-0.43,9.28
22,1.680,53.3109312,-0.0628536,133.0,5.02,-0.093,0.025,0.983,0,-1.65,-0.52,7.71
23,1.760,53.3109298,-0.0628551,133.0,5.36,-0.102,0.006,0.992,0,-0.55,-0.57,6.36
24,1.840,53.3109282,-0.0628566,133.0,5.34,-0.087,0.006,1.005,0,0.40,-0.91,5.67
25,1.920,53.3109266,-0.0628580,133.0,5.59,-0.084,-0.005,1.001,0,0.83,-0.95,5.64
26,2.000,53.3109250,-0.0628595,133.0,5.61,-0.085,-0.015,1.001,0,0.91,-0.91,6.15
27,2.080,53.3109234,-0.0628609,133.0,5.52,-0.068,-0.010,1.021,0,0.27,-0.90,7.14
28,2.200,53.3109208,-0.0628630,133.0,6.02,-0.059,-0.007,1.023,0,-0.87,-0.89,8.07
29,2.280,53.3109190,-0.0628644,133.0,6.14,-0.073,-0.008,0.998,0,-2.29,-0.71,8.81
30,2.360,53.3109173,-0.0628657,133.0,5.89,-0.087,-0.004,0.993,0,-3.77,-0.55,9.58
31,2.440,53.3109156,-0.0628670,133.0,6.10,-0.092,-0.010,0.991,0,-5.01,-0.49,10.04
32,2.520,53.3109135,-0.0628684,133.0,6.34,-0.090,-0.036,0.970,0,-4.56,-0.60,9.72
33,2.600,53.3109117,-0.0628696,133.0,6.16,-0.080,-0.059,0.964,0,-2.63,-0.76,8.88
34,2.680,53.3109098,-0.0628707,133.0,6.37,-0.060,-0.043,0.988,0,-0.61,-0.66,8.32
35,2.760,53.3109079,-0.0628721,133.0,6.24,-0.056,-0.020,0.988,0,0.31,-0.53,7.84
36,2.840,53.3109060,-0.0628735,133.0,6.46,-0.054,-0.004,0.983,0,0.75,-0.59,7.04
37,2.920,53.3109039,-0.0628747,133.0,6.60,-0.052,0.014,1.000,0,0.80,-0.33,5.89
38,3.000,53.3109022,-0.0628761,133.0,6.05,-0.058,0.027,1.007,0,0.52,-0.30,4.78
39,3.080,53.3109001,-0.0628775,133.0,6.57,-0.064,0.013,1.001,0,0.47,-0.59,3.73
40,3.200,53.3108971,-0.0628795,133.0,6.63,-0.062,-0.010,0.994,0,1.07,-0.73,2.93
41,3.280,53.3108952,-0.0628807,132.9,6.65,-0.057,-0.025,0.992,0,1.48,-0.38,3.04
42,3.360,53.3108931,-0.0628819,133.0,6.78,-0.063,-0.032,0.976,0,0.96,-0.34,4.35
43,3.440,53.3108909,-0.0628833,132.9,7.13,-0.063,-0.041,0.976,0,-0.18,-0.25,6.27
44,3.520,53.3108889,-0.0628843,132.9,6.50,-0.059,-0.051,0.978,0,-1.16,0.22,7.93
45,3.600,53.3108866,-0.0628856,133.0,7.26,-0.052,-0.045,0.981,0,-1.74,0.28,9.01
46,3.680,53.3108843,-0.0628868,132.9,7.19,-0.046,-0.029,0.990,0,-1.88,-0.02,9.07
47,3.760,53.3108823,-0.0628880,132.9,6.92,-0.033,-0.017,1.004,0,-1.61,-0.27,8.22
48,3.840,53.3108801,-0.0628891,132.9,6.86,-0.033,0.000,0.992,0,-1.08,-0.19,6.78
49,3.920,53.3108781,-0.0628902,132.9,6.53,-0.042,0.008,0.983,0,-1.00,-0.35,5.26
50,4.000,53.3108758,-0.0628914,132.9,7.21,-0.037,0.000,0.993,0,-1.38,-0.52,4.29
51,4.080,53.3108737,-0.0628925,132.9,7.16,-0.034,-0.010,0.992,0,-2.40,-0.57,4.19
52,4.200,53.3108703,-0.0628942,132.9,7.01,-0.042,-0.009,0.978,0,-3.52,-0.46,4.10
53,4.280,53.3108682,-0.0628954,132.9,7.13,-0.032,-0.007,0.994,0,-4.40,-0.35,3.71
54,4.360,53.3108660,-0.0628967,132.9,7.07,-0.010,-0.001,1.017,0,-4.76,-0.24,2.67
55,4.440,53.3108638,-0.0628981,132.9,7.15,-0.012,0.008,1.007,0,-4.76,0.00,1.00
56,4.520,53.3108616,-0.0628993,132.9,7.07,-0.018,0.006,0.990,0,-4.29,0.49,-0.81
57,4.600,53.3108594,-0.0629006,132.9,7.19,-0.014,-0.002,0.995,0,-3.94,0.72,-2.25
58,4.680,53.3108573,-0.0629022,132.9,7.15,-0.013,-0.008,1.000,0,-3.94,0.73,-3.31
59,4.760,53.3108552,-0.0629037,132.9,7.07,-0.017,-0.007,0.994,0,-4.09,0.75,-4.08
60,4.840,53.3108530,-0.0629053,132.9,7.21,-0.010,-0.003,1.004,0,-3.94,0.60,-5.08
61,4.920,53.3108510,-0.0629069,132.9,7.00,-0.003,0.005,1.016,0,-3.24,0.41,-6.94
62,5.000,53.3108490,-0.0629086,132.8,7.22,-0.004,0.008,1.013,0,-1.78,0.45,-9.28
63,5.080,53.3108469,-0.0629104,132.9,6.98,-0.005,0.000,1.011,0,0.21,0.62,-11.29
64,5.200,53.3108438,-0.0629130,132.9,7.20,-0.005,-0.014,1.013,0,2.08,0.60,-12.68
65,5.280,53.3108417,-0.0629148,132.9,7.18,-0.016,-0.029,0.997,0,3.58,0.72,-13.11
66,5.360,53.3108396,-0.0629165,132.9,7.36,-0.028,-0.042,0.981,0,4.24,0.69,-12.17
67,5.440,53.3108374,-0.0629183,132.9,7.52,-0.030,-0.046,0.983,0,4.35,0.66,-10.52
68,5.520,53.3108353,-0.0629202,132.9,7.26,-0.031,-0.041,0.977,0,4.17,0.48,-9.06
69,5.600,53.3108333,-0.0629220,132.8,7.05,-0.032,-0.035,0.982,0,4.19,0.51,-7.89
70,5.680,53.3108313,-0.0629239,132.9,7.32,-0.023,-0.033,0.999,0,4.22,0.37,-7.05
71,5.760,53.3108292,-0.0629259,132.9,7.03,-0.019,-0.032,1.002,0,4.40,0.10,-6.52
72,5.840,53.3108271,-0.0629278,132.9,7.30,-0.025,-0.034,0.993,0,4.56,0.10,-5.78
73,5.920,53.3108250,-0.0629295,132.9,7.44,-0.020,-0.039,1.001,0,4.27,-0.02,-4.56
74,6.000,53.3108230,-0.0629312,132.9,7.00,-0.018,-0.040,0.997,0,3.68,-0.25,-3.01
75,6.080,53.3108210,-0.0629331,132.9,7.06,-0.020,-0.034,0.997,0,2.97,-0.45,-1.59
76,6.200,53.3108179,-0.0629357,132.9,7.29,-0.016,-0.030,1.000,0,2.33,-0.51,-0.50
77,6.280,53.3108158,-0.0629374,132.8,7.13,-0.011,-0.026,1.007,0,1.64,-0.58,0.27
78,6.360,53.3108139,-0.0629393,132.8,6.89,-0.020,-0.023,0.998,0,1.25,-0.38,0.85
79,6.440,53.3108119,-0.0629410,132.8,7.08,-0.029,-0.019,0.986,0,1.15,-0.33,1.15
80,6.520,53.3108098,-0.0629429,132.8,7.23,-0.037,-0.017,0.978,0,1.43,-0.21,1.08
81,6.600,53.3108076,-0.0629447,132.8,7.37,-0.030,-0.015,0.994,0,1.82,-0.15,0.97
82,6.680,53.3108057,-0.0629466,132.8,7.06,-0.028,-0.016,0.994,0,2.23,-0.37,0.92
83,6.760,53.3108035,-0.0629481,132.8,7.20,-0.028,-0.018,0.996,0,2.87,-0.70,0.68
84,6.800,53.3108025,-0.0629490,132.8,7.13,-0.018,-0.019,1.014,0,3.61,-0.84,0.40
85,6.880,53.3108003,-0.0629506,132.8,7.21,-0.014,-0.020,1.020,0,4.27,-0.88,0.41
86,6.960,53.3107983,-0.0629524,132.8,7.25,-0.018,-0.024,1.002,0,4.74,-0.97,0.74
87,7.040,53.3107961,-0.0629538,132.8,7.33,-0.019,-0.026,0.995,0,5.26,-0.86,1.39
88,7.120,53.3107938,-0.0629554,132.8,7.30,-0.020,-0.026,0.992,0,5.38,-0.83,2.55
89,7.240,53.3107906,-0.0629575,132.8,7.18,-0.023,-0.029,0.994,0,5.18,-0.76,4.01
90,7.280,53.3107894,-0.0629582,132.7,7.46,-0.026,-0.031,0.992,0,4.87,-0.75,5.61
91,7.360,53.3107873,-0.0629596,132.8,7.27,-0.019,-0.034,1.001,0,4.34,-0.66,7.22
92,7.440,53.3107851,-0.0629611,132.8,7.16,-0.019,-0.033,1.002,0,3.54,-0.47,8.94
93,7.520,53.3107829,-0.0629623,132.7,6.89,-0.021,-0.035,0.995,0,2.47,-0.36,10.62
94,7.600,53.3107807,-0.0629635,132.7,7.47,-0.019,-0.033,0.989,0,1.33,-0.13,12.27
95,7.680,53.3107783,-0.0629645,132.7,7.53,-0.019,-0.026,0.989,0,0.02,0.04,13.66
96,7.760,53.3107760,-0.0629654,132.7,6.92,-0.018,-0.020,0.992,0,-1.34,-0.07,14.65
97,7.840,53.3107736,-0.0629664,132.7,7.79,-0.006,-0.014,1.003,0,-2.83,-0.22,15.29
98,7.920,53.3107711,-0.0629672,132.7,7.76,-0.003,-0.008,0.998,0,-4.25,-0.09,15.49
99,8.000,53.3107687,-0.0629681,132.7,7.35,-0.007,-0.009,0.988,0,-5.53,0.26,15.31
100,8.080,53.3107666,-0.0629689,132.7,7.18,-0.010,-0.011,0.980,0,-6.66,0.44,14.77
101,8.160,53.3107642,-0.0629697,132.7,7.58,-0.009,-0.005,0.987,0,-7.33,0.56,13.83
102,8.240,53.3107619,-0.0629707,132.7,7.29,-0.017,0.000,0.985,0,-7.30,0.66,12.11
103,8.320,53.3107596,-0.0629713,132.7,7.29,-0.019,0.004,0.992,0,-6.40,0.47,9.46
104,8.400,53.3107572,-0.0629722,132.7,7.17,-0.020,0.009,0.993,0,-5.08,0.09,6.49
105,8.480,53.3107548,-0.0629731,132.7,7.65,-0.016,0.010,0.993,0,-3.79,-0.06,3.92
106,8.560,53.3107527,-0.0629740,132.7,6.70,-0.019,0.007,0.992,0,-2.99,-0.04,1.97
107,8.640,53.3107505,-0.0629748,132.7,7.23,-0.018,0.006,0.994,0,-2.79,-0.09,0.68
108,8.720,53.3107482,-0.0629756,132.6,7.23,-0.015,0.006,0.988,0,-3.04,0.06,0.00
109,8.800,53.3107460,-0.0629766,132.6,7.04,-0.010,0.011,0.989,0,-3.12,0.17,-0.79
110,8.880,53.3107438,-0.0629777,132.6,7.35,-0.009,0.013,0.998,0,-2.99,0.06,-2.15
111,8.960,53.3107413,-0.0629789,132.6,7.65,-0.010,0.008,0.992,0,-2.59,0.09,-3.58
112,9.040,53.3107390,-0.0629800,132.6,7.16,-0.008,0.001,0.990,0,-1.90,0.25,-4.77
113,9.120,53.3107368,-0.0629814,132.6,7.48,-0.012,-0.004,0.997,0,-1.00,0.16,-5.78
114,9.240,53.3107332,-0.0629833,132.6,7.62,-0.008,-0.013,0.998,0,-0.32,0.03,-6.39
115,9.320,53.3107310,-0.0629844,132.6,7.36,-0.008,-0.019,0.998,0,0.33,0.16,-6.55
116,9.400,53.3107287,-0.0629857,132.6,7.43,-0.008,-0.020,1.005,0,1.04,0.27,-6.58
117,9.480,53.3107265,-0.0629868,132.6,7.19,-0.007,-0.024,1.012,0,1.54,0.16,-6.63
118,9.560,53.3107243,-0.0629881,132.6,7.30,0.000,-0.026,1.013,0,1.91,0.05,-6.46
119,9.640,53.3107219,-0.0629896,132.6,7.74,0.000,-0.024,1.011,0,2.27,0.20,-6.13
120,9.720,53.3107197,-0.0629909,132.6,7.18,0.002,-0.022,1.013,0,2.51,0.38,-5.57
121,9.800,53.3107176,-0.0629921,132.6,7.03,0.001,-0.020,1.006,0,2.53,0.45,-5.05
122,9.880,53.3107154,-0.0629934,132.5,7.05,-0.003,-0.017,0.995,0,2.73,0.45,-4.56
123,9.960,53.3107130,-0.0629949,132.5,7.77,-0.001,-0.015,1.000,0,2.97,0.40,-4.24
124,10.040,53.3107106,-0.0629963,132.5,7.80,-0.007,-0.017,1.004,0,3.10,0.25,-3.99
125,10.120,53.3107083,-0.0629975,132.6,7.54,-0.010,-0.023,1.002,0,2.95,-0.18,-3.51
126,10.200,53.3107058,-0.0629989,132.6,7.76,-0.016,-0.026,0.999,0,2.92,-0.40,-2.76
127,10.280,53.3107036,-0.0630003,132.5,7.67,-0.015,-0.028,1.009,0,2.72,-0.52,-1.88
128,10.360,53.3107013,-0.0630017,132.5,7.27,-0.013,-0.027,1.014,0,2.52,-0.65,-0.99
129,10.440,53.3106990,-0.0630031,132.6,7.37,-0.007,-0.028,1.012,0,2.21,-0.78,0.01
130,10.520,53.3106969,-0.0630045,132.5,7.35,-0.007,-0.023,1.004,0,2.07,-0.53,0.86
131,10.600,53.3106944,-0.0630056,132.5,7.36,-0.005,-0.020,1.007,0,2.00,-0.26,1.35
132,10.680,53.3106922,-0.0630067,132.5,7.35,-0.006,-0.018,1.005,0,2.06,-0.07,1.65
133,10.760,53.3106900,-0.0630079,132.5,7.40,-0.010,-0.017,1.002,0,2.09,0.18,1.94
134,10.840,53.3106877,-0.0630093,132.5,7.68,-0.007,-0.016,1.014,0,2.05,0.22,2.20
135,10.920,53.3106853,-0.0630103,132.4,7.55,-0.005,-0.016,1.012,0,2.09,0.02,2.45
136,11.000,53.3106830,-0.0630115,132.4,7.09,-0.007,-0.012,1.001,0,2.01,-0.22,2.68
137,11.080,53.3106808,-0.0630127,132.4,7.40,-0.012,-0.012,0.995,0,1.85,-0.50,2.90
138,11.200,53.3106773,-0.0630142,132.4,7.47,-0.015,-0.014,0.987,0,1.82,-0.59,3.19
139,11.280,53.3106749,-0.0630154,132.4,7.56,-0.021,-0.014,0.977,0,1.96,-0.72,3.56
140,11.360,53.3106725,-0.0630165,132.4,7.48,-0.019,-0.017,0.982,0,2.10,-0.96,3.93
141,11.440,53.3106702,-0.0630174,132.4,7.22,-0.014,-0.022,0.992,0,2.39,-1.13,4.43
142,11.520,53.3106678,-0.0630183,132.4,7.55,-0.016,-0.018,0.991,0,2.71,-1.14,5.07
143,11.600,53.3106655,-0.0630191,132.4,7.43,-0.015,-0.012,0.990,0,2.86,-1.33,5.59
144,11.680,53.3106629,-0.0630200,132.4,7.62,-0.011,-0.011,1.000,0,2.88,-1.30,5.99
145,11.760,53.3106608,-0.0630209,132.4,7.18,-0.011,-0.009,1.001,0,2.73,-0.89,6.58
146,11.840,53.3106584,-0.0630214,132.4,7.48,-0.009,-0.013,0.998,0,2.15,-0.75,7.38
147,11.920,53.3106561,-0.0630220,132.3,7.18,-0.005,-0.019,1.001,0,1.57,-0.51,8.49
148,12.000,53.3106536,-0.0630228,132.3,7.72,-0.009,-0.022,0.997,0,0.67,-0.21,9.65
149,12.080,53.3106513,-0.0630233,132.4,7.25,-0.005,-0.021,0.993,0,-0.49,-0.23,10.90
150,12.160,53.3106489,-0.0630238,132.3,7.51,-0.009,-0.020,0.990,0,-1.56,-0.17,11.89
151,12.240,53.3106464,-0.0630244,132.4,7.76,-0.003,-0.015,1.003,0,-2.73,-0.28,12.55
152,12.320,53.3106439,-0.0630248,132.4,7.72,-0.003,-0.008,1.002,0,-3.98,-0.42,12.67
153,12.400,53.3106413,-0.0630252,132.4,7.86,-0.004,0.000,0.998,0,-4.62,-0.58,12.22
154,12.480,53.3106389,-0.0630256,132.4,7.67,-0.004,0.009,0.995,0,-4.75,-0.72,10.88
155,12.560,53.3106364,-0.0630260,132.3,7.80,-0.004,0.017,0.997,0,-4.14,-0.78,8.74
156,12.640,53.3106340,-0.0630265,132.4,7.29,-0.008,0.023,0.994,0,-2.88,-0.84,6.11
157,12.720,53.3106313,-0.0630267,132.3,8.10,-0.008,0.020,0.992,0,-1.03,-1.13,3.09
158,12.800,53.3106287,-0.0630272,132.3,7.86,-0.001,0.007,1.001,0,1.14,-1.40,0.58
159,12.880,53.3106264,-0.0630276,132.3,7.25,-0.005,-0.004,1.000,0,3.53,-1.31,-1.10
160,12.960,53.3106238,-0.0630277,132.3,7.80,-0.008,-0.015,0.987,0,5.73,-1.38,-1.83
161,13.040,53.3106211,-0.0630279,132.3,7.81,-0.011,-0.033,0.974,0,7.75,-1.50,-1.49
162,13.120,53.3106185,-0.0630279,132.3,7.93,-0.013,-0.048,0.970,0,9.02,-1.34,0.65
163,13.200,53.3106160,-0.0630280,132.2,7.69,-0.016,-0.059,0.964,0,9.44,-1.29,3.46
164,13.280,53.3106137,-0.0630276,132.2,7.25,-0.013,-0.064,0.963,0,9.17,-1.46,7.00
165,13.360,53.3106112,-0.0630273,132.2,7.91,-0.005,-0.059,0.979,0,8.51,-1.36,10.52
166,13.440,53.3106087,-0.0630268,132.2,7.76,0.010,-0.045,0.987,0,7.78,-1.12,13.36
167,13.520,53.3106061,-0.0630263,132.1,7.84,0.018,-0.035,0.987,0,7.22,-0.70,14.99
168,13.600,53.3106036,-0.0630258,132.1,7.71,0.023,-0.027,0.998,0,6.85,0.01,16.21
169,13.680,53.3106011,-0.0630250,132.1,7.87,0.024,-0.027,0.995,0,6.51,1.08,17.44
170,13.760,53.3105986,-0.0630240,132.1,7.78,0.037,-0.031,1.005,0,5.73,1.67,19.17
171,13.840,53.3105960,-0.0630230,132.1,7.77,0.030,-0.033,0.993,0,4.45,1.90,21.29
172,13.920,53.3105938,-0.0630213,132.0,7.95,0.027,-0.026,0.984,0,3.14,1.90,23.33
173,14.000,53.3105914,-0.0630198,132.0,7.84,0.036,-0.020,0.995,0,1.70,1.73,24.76
174,14.080,53.3105889,-0.0630184,132.0,8.00,0.047,-0.013,1.012,0,0.38,1.24,25.30
175,14.160,53.3105865,-0.0630167,132.0,8.01,0.044,-0.003,1.005,0,-0.09,0.95,25.16
176,14.240,53.3105843,-0.0630149,131.9,7.76,0.057,0.002,1.021,0,-0.33,0.65,24.12
177,14.320,53.3105819,-0.0630131,131.9,8.15,0.057,0.006,1.018,0,-0.04,0.98,22.84
178,14.400,53.3105796,-0.0630113,131.9,7.97,0.037,0.006,0.996,0,0.53,1.74,21.81
179,14.480,53.3105772,-0.0630092,131.9,7.94,0.041,0.004,1.001,0,1.06,2.07,21.07
180,14.560,53.3105752,-0.0630070,131.9,7.93,0.041,0.002,0.999,0,1.32,2.33,20.49
181,14.640,53.3105729,-0.0630046,131.8,8.09,0.028,0.000,0.988,0,1.77,2.86,20.32
182,14.720,53.3105707,-0.0630020,131.8,8.35,0.039,-0.002,0.999,0,2.02,2.71,20.36
183,14.800,53.3105686,-0.0629993,131.8,8.34,0.053,-0.002,1.006,0,2.25,2.05,20.34
184,14.880,53.3105665,-0.0629967,131.8,8.04,0.044,-0.003,0.993,0,2.56,1.97,20.35
185,14.960,53.3105644,-0.0629940,131.8,8.20,0.050,-0.007,0.999,0,2.71,2.10,20.53
186,15.040,53.3105624,-0.0629912,131.7,8.15,0.054,-0.010,1.006,0,2.63,2.16,20.85
187,15.120,53.3105604,-0.0629882,131.7,8.32,0.050,-0.010,0.998,0,2.35,2.27,21.14
188,15.240,53.3105575,-0.0629836,131.7,8.35,0.050,-0.012,0.998,0,2.11,2.60,21.59
189,15.320,53.3105555,-0.0629802,131.7,8.32,0.049,-0.010,1.003,0,1.78,2.54,21.85
190,15.400,53.3105539,-0.0629768,131.7,7.98,0.047,-0.008,0.999,0,1.53,2.32,21.99
191,15.480,53.3105522,-0.0629733,131.7,8.67,0.050,-0.007,0.998,0,1.33,2.40,22.18
192,15.560,53.3105504,-0.0629698,131.6,8.66,0.053,-0.007,1.005,0,1.02,2.46,22.44
193,15.640,53.3105487,-0.0629661,131.6,8.48,0.058,-0.004,1.008,0,0.64,2.51,22.60
194,15.720,53.3105471,-0.0629623,131.6,8.48,0.057,-0.003,1.006,0,0.21,2.71,22.71
195,15.800,53.3105456,-0.0629586,131.5,8.60,0.047,-0.001,1.000,0,-0.25,2.83,22.65
196,15.880,53.3105441,-0.0629545,131.6,8.45,0.050,0.000,1.001,0,-0.61,2.66,22.34
197,15.960,53.3105428,-0.0629506,131.5,8.45,0.052,0.005,0.998,0,-0.69,2.60,21.75
198,16.040,53.3105416,-0.0629466,131.6,8.23,0.053,0.003,1.001,0,-0.84,2.54,21.03
199,16.120,53.3105404,-0.0629424,131.6,8.47,0.055,0.002,1.001,0,-1.00,2.67,20.53
200,16.240,53.3105388,-0.0629364,131.5,8.31,0.062,0.001,1.011,0,-1.36,2.69,20.14
201,16.320,53.3105377,-0.0629322,131.6,8.41,0.055,0.001,1.008,0,-1.87,2.69,19.79
202,16.400,53.3105365,-0.0629279,131.5,8.65,0.060,0.000,1.015,0,-2.54,2.39,19.52
203,16.480,53.3105355,-0.0629237,131.5,8.39,0.052,0.004,1.007,0,-3.17,2.26,19.09
204,16.560,53.3105346,-0.0629195,131.5,8.61,0.048,0.008,0.996,0,-3.66,1.82,18.32
205,16.640,53.3105336,-0.0629152,131.5,8.59,0.047,0.010,0.990,0,-3.84,1.34,17.24
206,16.720,53.3105328,-0.0629109,131.4,8.48,0.054,0.010,1.005,0,-4.01,0.87,16.00
207,16.800,53.3105317,-0.0629065,131.4,8.60,0.044,0.010,1.000,0,-3.85,1.12,14.78
208,16.880,53.3105310,-0.0629022,131.4,8.48,0.042,0.009,0.992,0,-3.65,1.00,13.52
209,16.960,53.3105299,-0.0628979,131.4,8.56,0.046,0.009,0.991,0,-3.53,0.62,12.12
210,17.040,53.3105291,-0.0628935,131.3,8.72,0.045,0.010,0.999,0,-3.28,0.54,10.91
211,17.120,53.3105282,-0.0628889,131.3,8.74,0.040,0.008,0.993,0,-2.95,0.11,9.66
212,17.240,53.3105270,-0.0628822,131.3,8.63,0.052,0.003,1.000,0,-2.64,-0.68,8.53
213,17.320,53.3105262,-0.0628780,131.3,8.47,0.056,0.000,1.011,0,-2.23,-0.76,7.58
214,17.400,53.3105257,-0.0628733,131.3,8.66,0.056,-0.002,1.025,0,-1.52,-0.26,6.92
215,17.480,53.3105250,-0.0628690,131.2,8.49,0.056,-0.004,1.017,0,-0.81,0.34,6.17
216,17.560,53.3105243,-0.0628645,131.2,8.73,0.061,-0.004,1.013,0,-0.05,1.09,5.62
217,17.640,53.3105236,-0.0628601,131.1,8.40,0.055,-0.005,1.011,0,0.51,1.64,5.18
218,17.720,53.3105229,-0.0628555,131.1,8.80,0.046,-0.007,1.007,0,1.00,1.71,4.80
219,17.800,53.3105223,-0.0628509,131.1,8.67,0.041,-0.011,0.992,0,1.46,1.45,4.58
220,17.880,53.3105216,-0.0628464,131.1,8.50,0.040,-0.017,0.995,0,1.78,1.13,4.63
221,17.960,53.3105210,-0.0628419,131.2,8.67,0.038,-0.020,1.005,0,2.06,1.06,4.89
222,18.040,53.3105203,-0.0628372,131.2,8.72,0.042,-0.021,1.005,0,2.47,1.22,5.21
223,18.120,53.3105198,-0.0628327,131.2,8.56,0.047,-0.026,1.002,0,2.60,1.29,5.83
224,18.240,53.3105191,-0.0628262,131.1,8.23,0.045,-0.027,1.015,0,2.28,1.62,6.71
225,18.320,53.3105187,-0.0628217,131.1,8.63,0.031,-0.024,0.992,0,1.57,1.09,7.77
226,18.400,53.3105183,-0.0628172,131.0,8.50,0.022,-0.025,0.975,0,0.65,0.39,8.90
227,18.480,53.3105180,-0.0628126,131.0,8.57,0.025,-0.023,0.992,0,-0.61,-0.07,9.93
228,18.560,53.3105177,-0.0628080,131.0,8.84,0.030,-0.014,0.985,0,-1.89,-1.11,10.59
229,18.640,53.3105175,-0.0628033,131.0,8.72,0.041,-0.007,0.983,0,-3.22,-2.45,10.81
230,18.720,53.3105172,-0.0627988,131.0,8.41,0.050,-0.003,0.998,0,-4.32,-2.39,10.51
231,18.800,53.3105171,-0.0627942,131.0,8.38,0.048,0.002,0.997,0,-5.12,-2.02,9.64
232,18.880,53.3105169,-0.0627895,130.9,8.73,0.050,0.008,0.982,0,-5.71,-2.41,8.27
233,18.960,53.3105166,-0.0627850,130.9,8.45,0.053,0.013,0.976,0,-5.71,-2.42,6.67
234,19.040,53.3105164,-0.0627805,130.9,8.64,0.039,0.013,0.960,0,-5.40,-2.10,4.81
235,19.120,53.3105160,-0.0627757,130.9,8.71,0.039,0.015,0.962,0,-4.74,-2.42,2.95
236,19.240,53.3105157,-0.0627687,130.8,8.63,0.051,0.010,0.967,0,-4.01,-2.55,1.24
237,19.320,53.3105154,-0.0627643,130.8,8.54,0.049,0.000,0.978,0,-3.04,-1.38,-0.22
238,19.400,53.3105151,-0.0627597,130.8,8.57,0.042,-0.006,0.978,0,-2.24,-0.08,-1.38
239,19.480,53.3105148,-0.0627550,130.8,8.87,0.043,-0.010,0.976,0,-1.50,0.71,-2.11
240,19.560,53.3105145,-0.0627503,130.8,8.55,0.045,-0.016,0.987,0,-1.01,1.31,-2.57
241,19.640,53.3105142,-0.0627456,130.7,8.88,0.036,-0.017,0.983,0,-0.60,1.69,-2.84
242,19.720,53.3105140,-0.0627411,130.7,8.55,0.027,-0.016,0.966,0,-0.43,0.95,-2.88
243,19.800,53.3105136,-0.0627364,130.6,8.75,0.038,-0.016,0.974,0,-0.45,-0.09,-2.85
244,19.880,53.3105132,-0.0627319,130.6,8.64,0.053,-0.017,0.991,0,-0.34,-0.59,-2.89
245,19.960,53.3105127,-0.0627271,130.6,8.99,0.051,-0.018,0.993,0,-0.17,-0.66,-2.92
246,20.040,53.3105121,-0.0627223,130.6,8.74,0.066,-0.019,1.000,0,-0.15,-1.28,-2.83
247,20.120,53.3105120,-0.0627176,130.6,8.82,0.070,-0.020,1.012,0,-0.18,-0.80,-2.79
248,20.200,53.3105114,-0.0627130,130.6,8.79,0.057,-0.021,1.002,0,-0.26,-0.18,-2.75
249,20.280,53.3105108,-0.0627084,130.5,8.64,0.052,-0.019,0.990,0,-0.48,0.18,-2.55
250,20.360,53.3105103,-0.0627037,130.5,8.89,0.048,-0.018,0.982,0,-0.92,0.49,-2.42
251,20.440,53.3105098,-0.0626990,130.4,9.02,0.044,-0.016,0.988,0,-1.42,0.68,-2.33
252,20.520,53.3105092,-0.0626943,130.4,8.70,0.046,-0.012,0.983,0,-1.94,0.38,-2.37
253,20.600,53.3105086,-0.0626895,130.4,9.04,0.050,-0.009,0.981,0,-2.31,0.53,-2.47
254,20.680,53.3105079,-0.0626846,130.4,9.02,0.058,-0.008,0.999,0,-2.98,0.52,-2.64
255,20.760,53.3105075,-0.0626799,130.4,8.89,0.063,-0.004,0.999,0,-3.82,0.59,-2.89
256,20.840,53.3105068,-0.0626753,130.3,8.86,0.058,-0.001,0.985,0,-4.48,0.85,-3.47
257,20.920,53.3105062,-0.0626707,130.2,8.65,0.060,0.003,0.988,0,-4.66,1.04,-4.50
258,21.000,53.3105055,-0.0626663,130.2,8.60,0.074,0.009,1.015,0,-4.20,1.09,-6.17
259,21.080,53.3105047,-0.0626616,130.2,8.97,0.070,0.007,1.005,0,-2.67,1.38,-8.52
260,21.160,53.3105038,-0.0626569,130.2,8.97,0.065,0.002,0.994,0,-0.74,1.27,-10.69
261,21.240,53.3105030,-0.0626522,130.2,8.98,0.071,-0.003,0.999,0,1.34,1.14,-12.27
262,21.320,53.3105021,-0.0626477,130.1,8.65,0.066,-0.013,0.998,0,3.30,1.16,-13.22
263,21.400,53.3105012,-0.0626431,130.2,8.88,0.047,-0.026,0.975,0,4.84,0.64,-13.36
264,21.480,53.3105003,-0.0626383,130.1,9.16,0.042,-0.037,0.969,0,5.72,-0.40,-12.45
265,21.520,53.3105000,-0.0626361,130.0,8.93,0.039,-0.049,0.961,0,6.24,-1.20,-11.03
266,21.600,53.3104994,-0.0626317,129.9,8.65,0.035,-0.056,0.958,0,6.15,-1.97,-8.86
267,21.680,53.3104990,-0.0626271,129.7,8.58,0.039,-0.060,0.962,0,5.42,-2.79,-6.30
268,21.760,53.3104981,-0.0626225,129.7,8.87,0.057,-0.054,0.972,0,4.14,-3.05,-3.56
269,21.840,53.3104975,-0.0626179,129.7,8.80,0.069,-0.044,0.981,0,2.77,-2.71,-1.38
270,21.920,53.3104967,-0.0626134,129.6,9.03,0.076,-0.034,0.994,0,1.40,-2.22,0.10
271,22.000,53.3104957,-0.0626087,129.5,8.90,0.081,-0.024,1.009,0,0.32,-1.18,0.79
272,22.080,53.3104949,-0.0626042,129.5,8.81,0.087,-0.013,1.011,0,-0.40,-0.49,0.74
273,22.160,53.3104939,-0.0625995,129.5,8.89,0.077,-0.006,0.995,0,-0.60,-0.07,0.19
274,22.240,53.3104931,-0.0625948,129.4,9.10,0.071,-0.005,0.999,0,-0.59,0.63,-0.45
275,22.320,53.3104921,-0.0625902,129.4,8.86,0.075,-0.006,1.009,0,-0.55,1.06,-0.98
276,22.400,53.3104912,-0.0625855,129.4,9.01,0.084,-0.010,1.018,0,-0.63,0.84,-1.46
277,22.480,53.3104902,-0.0625809,129.5,8.73,0.081,-0.012,1.009,0,-0.80,0.84,-1.72
278,22.560,53.3104894,-0.0625763,129.4,9.00,0.068,-0.011,1.003,0,-1.09,0.94,-1.86
279,22.640,53.3104882,-0.0625714,129.4,9.56,0.068,-0.010,0.997,0,-1.37,0.65,-2.07
280,22.720,53.3104871,-0.0625666,129.4,9.42,0.064,-0.006,0.987,0,-1.30,0.23,-2.52
281,22.800,53.3104859,-0.0625618,129.4,9.38,0.055,-0.001,0.975,0,-0.68,-0.07,-3.39
282,22.880,53.3104848,-0.0625571,129.4,9.01,0.063,-0.002,0.983,0,0.47,-0.48,-4.50
283,22.960,53.3104836,-0.0625526,129.4,9.18,0.067,-0.006,0.989,0,1.96,-1.01,-5.62
284,23.040,53.3104827,-0.0625478,129.3,9.36,0.064,-0.011,0.989,0,3.64,-1.38,-6.24
285,23.120,53.3104816,-0.0625433,129.3,8.98,0.068,-0.022,0.994,0,5.02,-1.78,-6.00
286,23.200,53.3104806,-0.0625386,129.3,9.23,0.071,-0.034,0.994,0,6.08,-1.89,-5.07
287,23.280,53.3104798,-0.0625339,129.3,8.95,0.071,-0.040,0.995,0,6.61,-1.68,-3.57
288,23.360,53.3104787,-0.0625293,129.3,8.93,0.081,-0.044,1.002,0,6.70,-1.51,-1.61
289,23.440,53.3104777,-0.0625246,129.2,9.43,0.076,-0.046,1.001,0,6.41,-1.28,0.35
290,23.480,53.3104770,-0.0625221,129.2,9.50,0.079,-0.043,1.009,0,5.98,-0.79,2.08
291,23.560,53.3104762,-0.0625174,129.2,9.17,0.073,-0.035,1.005,0,5.20,-0.52,3.79
292,23.640,53.3104754,-0.0625126,129.2,9.25,0.070,-0.028,1.004,0,4.14,-0.53,5.31
293,23.720,53.3104743,-0.0625078,129.2,9.20,0.074,-0.019,1.009,0,3.00,-0.09,6.55
294,23.800,53.3104737,-0.0625030,129.1,9.02,0.070,-0.009,1.004,0,1.77,0.33,7.39
295,23.880,53.3104729,-0.0624981,129.1,9.43,0.078,-0.003,1.004,0,0.64,0.62,7.98
296,23.960,53.3104721,-0.0624934,129.1,9.05,0.089,0.001,1.015,0,-0.45,0.78,8.07
297,24.040,53.3104714,-0.0624886,129.1,9.20,0.081,0.006,1.003,0,-1.31,0.81,7.76
298,24.120,53.3104705,-0.0624835,129.1,9.76,0.079,0.013,0.997,0,-1.79,0.54,6.67
299,24.240,53.3104695,-0.0624763,129.0,8.94,0.085,0.016,0.999,0,-1.66,0.21,5.24
300,24.320,53.3104687,-0.0624715,129.0,9.34,0.077,0.014,0.992,0,-1.19,0.15,3.62
301,24.400,53.3104679,-0.0624666,129.0,9.31,0.065,0.009,0.972,0,-0.40,-0.12,2.22
302,24.480,53.3104670,-0.0624617,129.0,9.52,0.076,0.003,0.983,0,0.58,-0.20,1.29
303,24.560,53.3104662,-0.0624569,129.0,9.25,0.073,-0.007,0.989,0,1.37,-0.54,0.87
304,24.640,53.3104654,-0.0624519,128.9,9.54,0.076,-0.012,0.981,0,2.01,-1.28,0.84
305,24.720,53.3104646,-0.0624468,128.9,9.52,0.078,-0.016,0.982,0,2.60,-1.82,1.09
306,24.800,53.3104640,-0.0624420,128.9,9.27,0.086,-0.021,1.004,0,3.18,-1.98,1.50
307,24.880,53.3104633,-0.0624371,128.8,9.58,0.082,-0.022,1.007,0,3.69,-1.55,2.05
308,24.960,53.3104626,-0.0624321,128.8,9.38,0.084,-0.023,1.004,0,4.02,-0.54,2.99
309,25.040,53.3104620,-0.0624272,128.8,9.44,0.089,-0.025,1.012,0,3.88,0.33,4.13
310,25.120,53.3104614,-0.0624222,128.7,9.52,0.091,-0.025,1.025,0,3.20,1.27,5.52
311,25.240,53.3104606,-0.0624147,128.7,9.39,0.080,-0.021,1.016,0,2.31,1.63,6.89
312,25.320,53.3104603,-0.0624098,128.6,9.39,0.082,-0.014,1.008,0,1.39,1.24,8.02
313,25.400,53.3104599,-0.0624049,128.6,8.99,0.083,-0.008,1.008,0,0.40,0.64,8.63
314,25.480,53.3104594,-0.0623998,128.6,9.29,0.080,-0.003,1.010,0,-0.44,0.45,8.93
315,25.560,53.3104589,-0.0623947,128.6,9.62,0.081,0.002,1.002,0,-1.14,0.36,8.89
316,25.640,53.3104585,-0.0623898,128.6,9.35,0.088,0.003,1.000,0,-1.89,0.28,8.67
317,25.720,53.3104581,-0.0623846,128.6,9.46,0.090,0.002,1.009,0,-2.69,0.55,8.24
318,25.800,53.3104576,-0.0623798,128.6,9.13,0.082,0.009,1.012,0,-3.01,1.13,7.61
319,25.880,53.3104572,-0.0623747,128.6,9.31,0.074,0.015,0.989,0,-3.01,1.12,6.46
320,25.960,53.3104568,-0.0623698,128.6,9.21,0.071,0.017,0.976,0,-2.50,0.63,4.75
321,26.040,53.3104564,-0.0623647,128.6,9.57,0.066,0.013,0.986,0,-1.64,0.83,2.98
322,26.120,53.3104561,-0.0623599,128.6,8.78,0.063,0.008,0.984,0,-0.55,0.60,1.67
323,26.240,53.3104556,-0.0623527,128.5,9.05,0.067,-0.004,0.981,0,0.21,0.34,0.85
324,26.320,53.3104551,-0.0623477,128.6,9.17,0.063,-0.012,0.989,0,1.00,0.97,0.78
325,26.400,53.3104548,-0.0623430,128.6,8.95,0.059,-0.017,0.997,0,1.43,1.54,1.25
326,26.480,53.3104546,-0.0623381,128.6,9.05,0.065,-0.015,0.995,0,1.51,1.21,1.89
327,26.560,53.3104544,-0.0623334,128.5,9.01,0.059,-0.013,0.985,0,1.35,1.04,2.48
328,26.640,53.3104542,-0.0623284,128.5,9.20,0.053,-0.009,0.986,0,1.16,0.82,2.93
329,26.720,53.3104540,-0.0623237,128.5,8.79,0.069,-0.008,1.001,0,0.88,0.08,3.21
330,26.800,53.3104537,-0.0623186,128.5,9.46,0.069,-0.005,1.000,0,0.51,-0.12,3.30
331,26.880,53.3104535,-0.0623138,128.5,8.92,0.065,-0.006,0.999,0,0.47,0.29,3.39
332,26.920,53.3104536,-0.0623116,128.4,8.68,0.072,-0.007,1.009,0,0.41,0.68,3.33
333,27.000,53.3104533,-0.0623067,128.4,9.00,0.076,-0.007,1.016,0,0.46,1.08,3.30
334,27.080,53.3104532,-0.0623021,128.4,8.60,0.069,-0.007,1.010,0,0.32,1.29,3.22
335,27.160,53.3104532,-0.0622975,128.4,8.72,0.073,-0.006,1.011,0,0.40,1.30,3.26
336,27.240,53.3104531,-0.0622928,128.4,8.69,0.070,-0.006,1.013,0,0.27,1.15,3.22
337,27.320,53.3104531,-0.0622881,128.3,8.63,0.061,-0.005,1.001,0,0.19,1.00,3.17
338,27.360,53.3104531,-0.0622858,128.3,8.88,0.059,-0.005,0.996,0,0.09,0.58,3.16
339,27.440,53.3104530,-0.0622811,128.3,8.56,0.060,-0.005,0.995,0,0.04,0.30,3.13
340,27.520,53.3104529,-0.0622764,128.3,8.65,0.055,-0.006,0.986,0,-0.03,0.14,3.11
341,27.600,53.3104528,-0.0622718,128.3,8.63,0.059,-0.007,0.992,0,-0.23,-0.15,2.99
342,27.680,53.3104527,-0.0622671,128.3,8.78,0.069,-0.006,1.013,0,-0.28,-0.16,2.94
343,27.760,53.3104527,-0.0622623,128.3,8.50,0.060,-0.006,1.008,0,-0.33,0.21,2.80
344,27.840,53.3104526,-0.0622578,128.3,8.35,0.055,-0.006,0.999,0,-0.39,0.66,2.61
345,27.880,53.3104525,-0.0622555,128.3,8.41,0.061,-0.007,1.011,0,-0.48,0.99,2.41
346,27.960,53.3104525,-0.0622509,128.2,8.82,0.055,-0.005,1.004,0,-0.31,1.62,2.35
347,28.040,53.3104524,-0.0622463,128.2,8.46,0.040,-0.003,0.996,0,-0.46,1.91,2.17
348,28.120,53.3104523,-0.0622418,128.2,8.27,0.048,-0.005,1.005,0,-0.55,1.79,2.01
349,28.200,53.3104522,-0.0622371,128.1,8.94,0.044,-0.005,1.001,0,-0.67,1.26,1.89
350,28.280,53.3104519,-0.0622323,128.2,8.74,0.032,-0.005,1.002,0,-0.59,1.04,1.70
351,28.360,53.3104519,-0.0622277,128.2,8.74,0.030,-0.003,1.012,0,-0.40,0.72,1.19
352,28.440,53.3104519,-0.0622232,128.1,8.54,0.033,-0.001,1.008,0,0.08,0.17,0.53
353,28.520,53.3104517,-0.0622188,128.1,8.13,0.026,-0.001,0.995,0,0.66,-0.40,-0.05
354,28.600,53.3104517,-0.0622142,128.1,8.50,0.015,-0.002,0.984,0,1.33,-0.50,-0.56
355,28.680,53.3104516,-0.0622098,128.1,8.39,0.025,-0.006,0.989,0,1.93,-1.22,-0.82
356,28.760,53.3104517,-0.0622053,128.1,8.56,0.029,-0.012,0.986,0,2.53,-1.88,-0.69
357,28.840,53.3104517,-0.0622007,128.1,8.44,0.019,-0.016,0.968,0,3.02,-2.38,-0.28
358,28.920,53.3104517,-0.0621960,128.1,8.85,0.017,-0.019,0.962,0,3.39,-2.87,0.36
359,29.000,53.3104517,-0.0621915,128.1,8.35,0.020,-0.023,0.966,0,3.57,-3.03,1.32
360,29.080,53.3104518,-0.0621872,128.1,8.14,0.013,-0.023,0.955,0,3.29,-3.50,2.71
361,29.160,53.3104526,-0.0621834,128.0,7.82,0.020,-0.020,0.953,0,2.71,-4.13,4.06
362,29.240,53.3104531,-0.0621790,127.9,8.66,0.037,-0.016,0.975,0,2.06,-4.28,5.33
363,29.320,53.3104535,-0.0621752,127.9,7.14,0.035,-0.011,0.978,0,1.53,-4.00,6.16
364,29.360,53.3104542,-0.0621735,127.7,7.65,0.032,-0.006,0.970,0,1.05,-4.15,6.60
365,29.440,53.3104552,-0.0621696,127.5,8.63,0.041,-0.002,0.968,0,0.70,-3.78,6.58
366,29.520,53.3104549,-0.0621647,127.6,8.70,0.033,0.000,0.972,0,0.59,-2.23,6.53
367,29.600,53.3104546,-0.0621595,127.7,9.14,0.018,0.000,0.950,0,0.32,-1.25,6.42
368,29.680,53.3104551,-0.0621556,127.6,7.76,0.029,-0.002,0.940,0,-0.24,-1.71,6.35
369,29.760,53.3104555,-0.0621508,127.5,9.31,0.043,-0.002,0.943,0,-0.64,-2.18,6.35
370,29.840,53.3104558,-0.0621457,127.5,9.76,0.034,-0.002,0.943,0,-1.12,-3.19,6.30
371,29.920,53.3104562,-0.0621408,127.5,9.20,0.049,-0.001,0.950,0,-1.59,-4.65,6.22
372,30.000,53.3104563,-0.0621355,127.4,9.81,0.068,-0.002,0.972,0,-1.82,-4.71,6.02
373,30.080,53.3104567,-0.0621307,127.4,9.03,0.072,0.000,0.989,0,-1.49,-2.78,5.54
374,30.160,53.3104567,-0.0621252,127.4,9.93,0.067,0.007,0.981,0,-1.08,-1.00,4.58
375,30.240,53.3104567,-0.0621203,127.4,9.43,0.062,0.011,0.973,0,-0.38,0.84,3.48
376,30.280,53.3104570,-0.0621179,127.4,9.22,0.042,0.011,0.947,0,0.36,1.80,2.25
377,30.320,53.3104574,-0.0621151,127.3,9.76,0.047,0.010,0.966,0,1.03,1.40,1.19
378,30.400,53.3104574,-0.0621107,127.3,8.33,0.051,0.007,0.996,0,1.76,-0.35,0.54
379,30.480,53.3104581,-0.0621054,127.3,9.94,0.052,-0.002,1.007,0,2.66,-1.68,0.33
380,30.560,53.3104587,-0.0621008,127.3,9.09,0.067,-0.010,1.011,0,3.87,-1.59,0.45
381,30.640,53.3104592,-0.0620953,127.3,10.52,0.084,-0.018,1.041,0,4.94,-0.69,0.77
382,30.720,53.3104597,-0.0620897,127.3,10.51,0.079,-0.024,1.029,0,5.91,0.42,1.50
383,30.800,53.3104599,-0.0620851,127.2,8.28,0.077,-0.033,1.015,0,6.52,2.00,2.75
384,30.840,53.3104604,-0.0620827,127.2,9.01,0.075,-0.036,1.031,0,6.68,3.39,4.18
385,30.920,53.3104610,-0.0620774,127.2,10.21,0.064,-0.037,1.032,0,6.04,3.84,6.00
386,31.000,53.3104618,-0.0620721,127.2,10.16,0.058,-0.031,1.027,0,5.05,3.84,7.81
387,31.080,53.3104625,-0.0620666,127.2,10.13,0.053,-0.022,1.019,0,4.10,3.88,9.09
388,31.160,53.3104633,-0.0620610,127.1,10.80,0.048,-0.012,1.015,0,2.98,3.30,9.77
389,31.240,53.3104640,-0.0620559,127.1,9.74,0.044,-0.005,0.997,0,2.00,2.26,10.11
390,31.280,53.3104646,-0.0620533,127.1,10.26,0.046,0.000,0.992,0,1.38,0.90,10.03
391,31.320,53.3104649,-0.0620502,127.1,10.77,0.054,0.000,0.991,0,1.05,-0.33,9.86
392,31.400,53.3104658,-0.0620448,127.1,10.34,0.051,0.000,0.989,0,0.69,-1.07,9.73
393,31.480,53.3104668,-0.0620396,127.1,10.37,0.063,-0.002,1.000,0,0.53,-1.28,9.74
394,31.560,53.3104675,-0.0620343,127.0,10.52,0.079,0.000,1.017,0,0.39,-0.89,9.78
395,31.640,53.3104686,-0.0620289,127.0,10.50,0.078,0.005,1.012,0,0.26,0.19,9.87
396,31.720,53.3104699,-0.0620235,127.0,10.08,0.073,0.011,0.994,0,0.05,1.07,9.81
397,31.760,53.3104702,-0.0620208,127.0,10.39,0.066,0.014,0.967,0,-0.51,0.97,9.59
398,31.800,53.3104706,-0.0620184,126.9,10.12,0.074,0.010,0.979,0,-1.14,0.73,9.24
399,31.880,53.3104713,-0.0620140,126.9,8.10,0.075,0.003,1.014,0,-1.39,2.27,8.88
400,31.960,53.3104718,-0.0620096,126.9,8.80,0.067,-0.003,1.011,0,-1.81,2.05,8.39
401,32.040,53.3104727,-0.0620048,126.9,9.21,0.080,-0.007,1.020,0,-1.93,2.47,8.17
402,32.120,53.3104738,-0.0620000,126.9,9.41,0.062,-0.008,1.021,0,-1.98,2.15,7.94
403,32.200,53.3104751,-0.0619949,126.8,10.03,0.040,-0.002,1.018,0,-2.39,0.56,7.66
404,32.280,53.3104761,-0.0619903,126.8,9.38,0.034,0.002,0.987,0,-3.00,-1.84,7.29
405,32.360,53.3104774,-0.0619847,126.8,10.86,0.045,0.006,0.962,0,-3.31,-2.95,6.81
406,32.440,53.3104786,-0.0619792,126.7,11.04,0.035,0.010,0.963,0,-3.24,-2.92,5.95
407,32.520,53.3104797,-0.0619739,126.6,10.80,0.068,0.008,1.011,0,-2.99,-2.71,4.69
408,32.600,53.3104811,-0.0619686,126.6,10.86,0.094,0.008,1.011,0,-2.10,-1.84,3.59
409,32.680,53.3104820,-0.0619635,126.6,9.80,0.072,0.009,0.978,0,-0.68,-0.08,2.69
410,32.720,53.3104826,-0.0619604,126.5,10.71,0.074,0.009,1.003,0,0.05,0.00,1.74
411,32.760,53.3104832,-0.0619584,126.5,9.40,0.088,0.000,1.013,0,0.75,0.08,1.20
412,32.800,53.3104838,-0.0619560,126.5,9.59,0.066,0.000,0.960,0,1.59,0.90,1.24
413,32.880,53.3104853,-0.0619505,126.5,10.95,0.035,-0.003,0.937,0,2.18,1.63,1.37
414,32.960,53.3104869,-0.0619449,126.4,11.52,0.069,-0.012,0.977,0,2.24,0.51,1.56
415,33.040,53.3104882,-0.0619404,126.3,9.66,0.080,-0.015,0.989,0,2.55,0.00,1.89
416,33.120,53.3104902,-0.0619346,126.3,12.12,0.096,-0.015,1.017,0,2.76,-0.54,2.23
417,33.240,53.3104927,-0.0619259,126.3,11.66,0.094,-0.016,1.016,0,3.03,-0.93,2.58
418,33.320,53.3104946,-0.0619210,126.4,10.52,0.106,-0.017,1.025,0,3.34,-1.21,3.22
419,33.400,53.3104958,-0.0619157,126.3,11.06,0.090,-0.012,1.016,0,3.59,-0.76,3.93
420,33.480,53.3104973,-0.0619101,126.2,11.53,0.082,-0.014,1.019,0,3.70,0.07,4.83
421,33.560,53.3104989,-0.0619051,126.2,10.59,0.070,-0.013,1.000,0,3.28,0.51,5.72
422,33.640,53.3105007,-0.0619000,126.2,10.54,0.077,-0.012,1.005,0,2.56,0.56,6.73
423,33.720,53.3105020,-0.0618949,126.0,11.27,0.065,-0.012,0.987,0,1.63,1.43,7.68
424,33.800,53.3105037,-0.0618897,126.0,10.51,0.064,-0.012,0.990,0,0.13,1.85,8.53
425,33.880,53.3105061,-0.0618843,126.1,12.00,0.072,-0.006,0.991,0,-1.78,1.43,9.19
426,33.960,53.3105077,-0.0618794,125.9,10.28,0.054,0.000,0.968,0,-3.62,1.11,9.61
427,34.040,53.3105093,-0.0618738,125.9,11.69,0.046,0.005,0.961,0,-5.30,1.35,9.42
428,34.120,53.3105111,-0.0618687,125.9,11.02,0.049,0.021,0.962,0,-6.14,0.51,7.51
429,34.240,53.3105132,-0.0618616,125.9,9.20,0.051,0.027,0.971,0,-6.09,0.35,4.95
430,34.320,53.3105150,-0.0618564,125.8,11.24,0.049,0.024,0.984,0,-5.16,0.49,2.05
431,34.400,53.3105165,-0.0618512,125.8,10.69,0.065,0.020,1.006,0,-3.58,0.42,-0.46
432,34.480,53.3105181,-0.0618461,125.7,10.66,0.067,0.011,1.000,0,-1.74,0.39,-2.34
433,34.560,53.3105199,-0.0618414,125.7,10.08,0.079,-0.004,1.018,0,-0.39,0.42,-3.03
434,34.640,53.3105214,-0.0618364,125.7,10.62,0.094,-0.009,1.026,0,0.76,-0.18,-2.99
435,34.720,53.3105230,-0.0618318,125.8,9.56,0.095,-0.011,1.004,0,1.29,-0.87,-2.35
436,34.800,53.3105249,-0.0618264,125.7,11.35,0.087,-0.018,0.985,0,1.15,-1.06,-1.34
437,34.880,53.3105267,-0.0618214,125.8,10.84,0.096,-0.021,1.012,0,0.47,-0.93,-0.16
438,34.960,53.3105283,-0.0618161,125.7,11.73,0.091,-0.016,1.010,0,-0.42,-0.42,0.96
439,35.040,53.3105303,-0.0618111,125.7,10.76,0.096,-0.010,1.001,0,-1.30,0.12,1.44
440,35.120,53.3105319,-0.0618070,125.7,8.97,0.111,-0.004,1.024,0,-1.72,0.54,1.20
441,35.200,53.3105336,-0.0618016,125.6,11.39,0.096,0.001,1.007,0,-1.62,0.85,0.57
442,35.280,53.3105354,-0.0617965,125.6,11.11,0.110,0.000,1.020,0,-1.17,1.19,-0.31
443,35.360,53.3105369,-0.0617917,125.6,10.01,0.122,-0.001,1.036,0,-0.66,1.26,-1.25
444,35.440,53.3105387,-0.0617869,125.5,10.38,0.116,0.000,1.019,0,-0.12,1.01,-1.82
445,35.520,53.3105403,-0.0617821,125.6,10.03,0.108,-0.003,1.001,0,0.26,1.22,-2.06
446,35.600,53.3105414,-0.0617773,125.5,9.81,0.135,-0.008,1.044,0,0.32,0.64,-2.30
447,35.680,53.3105431,-0.0617714,125.5,11.86,0.128,-0.005,1.009,0,0.33,-0.90,-2.49
448,35.720,53.3105437,-0.0617693,125.5,10.42,0.129,-0.011,0.996,0,0.68,-1.49,-2.48
449,35.800,53.3105450,-0.0617650,125.4,9.22,0.138,-0.017,1.016,0,1.01,-2.06,-2.56
450,35.880,53.3105460,-0.0617609,125.3,8.31,0.142,-0.015,1.017,0,1.61,-2.68,-2.55
451,35.960,53.3105473,-0.0617572,125.3,8.03,0.135,-0.017,0.991,0,2.20,-2.79,-2.54
452,36.040,53.3105484,-0.0617534,125.2,7.88,0.142,-0.022,1.012,0,2.74,-2.62,-2.41
453,36.120,53.3105497,-0.0617494,125.2,8.29,0.134,-0.020,1.010,0,3.32,-2.44,-1.91
454,36.200,53.3105509,-0.0617457,125.2,7.74,0.107,-0.022,0.973,0,3.88,-1.86,-1.12
455,36.280,53.3105523,-0.0617413,125.1,9.10,0.102,-0.030,0.977,0,3.82,-0.98,-0.09
456,36.360,53.3105537,-0.0617376,125.1,8.29,0.104,-0.027,0.994,0,3.51,-0.09,1.18
457,36.440,53.3105548,-0.0617331,125.2,8.62,0.103,-0.022,0.986,0,2.97,0.11,2.52
458,36.520,53.3105557,-0.0617295,125.1,7.39,0.112,-0.020,0.982,0,2.38,0.53,3.54
459,36.600,53.3105571,-0.0617253,124.9,8.91,0.112,-0.014,0.987,0,1.59,0.72,4.13
460,36.680,53.3105576,-0.0617221,124.9,7.01,0.108,-0.009,0.964,0,0.91,-0.26,4.48
461,36.760,53.3105601,-0.0617167,124.9,9.99,0.098,-0.008,0.936,0,0.31,-1.02,4.52
462,36.880,53.3105621,-0.0617104,124.9,8.81,0.103,-0.008,0.958,0,-0.26,-1.33,4.40
463,36.960,53.3105631,-0.0617073,124.8,7.44,0.128,-0.007,0.988,0,-0.92,-1.65,4.13
464,37.040,53.3105647,-0.0617043,124.9,7.16,0.158,-0.007,1.010,0,-1.28,-1.17,3.82
465,37.120,53.3105659,-0.0617003,124.8,8.11,0.171,-0.005,1.037,0,-1.45,-0.20,3.36
466,37.200,53.3105675,-0.0616970,124.8,7.75,0.171,-0.004,1.036,0,-1.30,1.14,2.96
467,37.280,53.3105687,-0.0616938,124.8,7.16,0.165,-0.004,1.030,0,-1.12,2.29,2.42
468,37.360,53.3105701,-0.0616897,124.8,8.38,0.148,-0.004,1.019,0,-1.01,2.44,1.99
469,37.440,53.3105719,-0.0616862,124.9,8.42,0.138,-0.004,1.008,0,-0.98,2.17,1.59
470,37.560,53.3105742,-0.0616803,124.9,8.82,0.128,-0.005,0.998,0,-0.89,2.13,1.17
471,37.640,53.3105757,-0.0616760,124.9,9.25,0.128,-0.005,1.003,0,-0.70,1.69,0.76
472,37.680,53.3105763,-0.0616747,124.9,8.12,0.132,-0.006,0.998,0,-0.55,1.03,0.43
473,37.760,53.3105774,-0.0616713,124.8,7.44,0.142,-0.008,0.994,0,-0.27,0.56,0.08
474,37.840,53.3105789,-0.0616679,124.8,7.74,0.148,-0.010,0.991,0,0.16,0.12,-0.16
475,37.920,53.3105801,-0.0616648,124.8,6.91,0.164,-0.013,0.989,0,0.47,-0.67,-0.36
476,38.000,53.3105807,-0.0616619,124.6,5.75,0.175,-0.016,0.983,0,0.63,-1.26,-0.54
477,38.080,53.3105816,-0.0616595,124.5,5.35,0.186,-0.020,0.982,0,0.89,-1.81,-0.55
478,38.160,53.3105826,-0.0616561,124.5,6.80,0.186,-0.022,0.978,0,1.13,-2.11,-0.52
479,38.240,53.3105838,-0.0616534,124.5,6.43,0.183,-0.023,0.983,0,1.31,-2.31,-0.44
480,38.320,53.3105849,-0.0616508,124.5,5.64,0.182,-0.027,0.987,0,1.41,-2.40,-0.10
481,38.400,53.3105854,-0.0616486,124.4,4.78,0.182,-0.032,0.995,0,1.44,-2.32,0.63
482,38.480,53.3105862,-0.0616470,124.4,3.88,0.176,-0.032,1.001,0,1.33,-1.72,1.54
483,38.560,53.3105873,-0.0616447,124.4,5.26,0.178,-0.030,1.011,0,1.11,-1.08,2.43
484,38.640,53.3105885,-0.0616419,124.4,6.02,0.181,-0.027,1.010,0,0.84,-0.55,3.18
485,38.680,53.3105890,-0.0616409,124.5,5.59,0.179,-0.022,1.006,0,0.62,0.03,3.68
486,38.760,53.3105898,-0.0616390,124.4,4.47,0.168,-0.017,1.002,0,0.52,0.65,3.83
487,38.840,53.3105906,-0.0616371,124.4,4.46,0.159,-0.015,0.994,0,0.46,1.07,3.75
488,38.920,53.3105918,-0.0616341,124.5,6.24,0.149,-0.016,0.994,0,0.47,1.60,3.64
489,39.000,53.3105927,-0.0616320,124.4,5.14,0.131,-0.014,0.983,0,0.60,1.91,3.60
490,39.080,53.3105936,-0.0616298,124.4,4.94,0.126,-0.014,0.987,0,0.62,1.41,3.54
491,39.160,53.3105942,-0.0616276,124.4,4.87,0.126,-0.016,0.996,0,0.60,0.73,3.60
492,39.240,53.3105947,-0.0616260,124.3,3.64,0.120,-0.019,0.994,0,0.55,0.22,3.80
493,39.320,53.3105956,-0.0616240,124.3,4.51,0.116,-0.020,0.980,0,0.35,-0.65,4.12
494,39.400,53.3105963,-0.0616225,124.2,4.25,0.120,-0.023,0.974,0,0.06,-1.80,4.46
495,39.480,53.3105971,-0.0616201,124.2,5.14,0.118,-0.024,0.969,0,0.00,-2.54,4.67
496,39.560,53.3105982,-0.0616190,124.2,3.51,0.130,-0.019,0.977,0,-0.13,-3.35,4.72
497,39.600,53.3105985,-0.0616181,124.2,3.35,0.151,-0.009,0.995,0,-0.29,-3.98,4.75
498,39.640,53.3105988,-0.0616173,124.2,3.55,0.171,0.000,1.011,0,-0.60,-4.08,4.66
499,39.720,53.3105994,-0.0616159,124.1,3.27,0.174,0.000,1.003,0,-0.93,-3.14,4.38
500,39.800,53.3106002,-0.0616148,124.1,3.30,0.171,-0.009,0.992,0,-1.19,-2.37,4.08
501,39.880,53.3106009,-0.0616129,124.0,4.53,0.168,-0.016,0.989,0,-1.37,-2.03,4.04
502,39.960,53.3106020,-0.0616114,124.0,3.61,0.156,-0.023,0.977,0,-1.51,-1.84,4.08
503,40.040,53.3106026,-0.0616107,124.0,2.32,0.148,-0.025,0.971,0,-1.68,-1.93,4.07
504,40.080,53.3106028,-0.0616101,124.0,2.84,0.147,-0.021,0.969,0,-1.89,-2.27,4.13
505,40.160,53.3106033,-0.0616089,124.0,2.59,0.147,-0.014,0.967,0,-2.28,-2.27,4.06
506,40.240,53.3106039,-0.0616075,123.9,3.36,0.143,-0.007,0.965,0,-2.33,-1.76,3.62
507,40.320,53.3106047,-0.0616061,123.9,3.36,0.143,-0.001,0.971,0,-2.05,-1.23,2.49
508,40.400,53.3106050,-0.0616043,123.9,3.10,0.139,0.004,0.960,0,-1.27,-1.26,0.81
509,40.480,53.3106052,-0.0616027,123.8,2.99,0.147,0.014,0.967,0,-0.46,-1.90,-1.17
510,40.560,53.3106057,-0.0616015,123.7,2.99,0.155,0.019,0.978,0,0.20,-2.37,-3.18
511,40.600,53.3106059,-0.0616007,123.7,2.75,0.160,0.013,0.982,0,0.52,-2.76,-4.89
512,40.640,53.3106061,-0.0615998,123.7,2.86,0.159,0.007,0.972,0,0.55,-2.99,-5.90
513,40.720,53.3106065,-0.0615981,123.7,3.58,0.166,0.002,0.981,0,0.19,-2.61,-6.04
514,40.800,53.3106072,-0.0615966,123.6,3.28,0.160,-0.005,0.985,0,-0.20,-1.83,-6.01
515,40.880,53.3106077,-0.0615952,123.7,2.81,0.156,-0.010,0.985,0,-0.43,-1.63,-6.00
516,40.960,53.3106082,-0.0615938,123.7,2.47,0.148,-0.012,0.980,0,-0.41,-1.55,-6.05
517,41.040,53.3106087,-0.0615928,123.6,2.68,0.144,-0.018,0.992,0,-0.25,-1.30,-5.99
518,41.120,53.3106093,-0.0615911,123.7,3.16,0.138,-0.042,0.992,0,0.25,-1.00,-5.80
519,41.200,53.3106099,-0.0615896,123.7,3.24,0.132,-0.065,0.987,0,1.06,-0.83,-5.22
520,41.280,53.3106107,-0.0615882,123.7,3.24,0.127,-0.074,0.983,0,1.93,-0.58,-3.93
521,41.360,53.3106114,-0.0615870,123.6,2.94,0.133,-0.076,0.983,0,2.28,-0.41,-2.13
522,41.440,53.3106122,-0.0615853,123.6,3.62,0.142,-0.068,0.982,0,2.22,-0.38,-0.10
523,41.520,53.3106128,-0.0615839,123.6,2.60,0.146,-0.049,0.987,0,1.59,-0.40,1.60
524,41.560,53.3106130,-0.0615833,123.7,2.39,0.152,-0.030,0.994,0,0.75,-0.41,3.04
525,41.600,53.3106132,-0.0615825,123.7,2.32,0.156,-0.022,0.997,0,-0.16,-0.30,3.87
526,41.680,53.3106139,-0.0615812,123.7,3.10,0.147,-0.022,0.990,0,-0.67,0.02,4.14
527,41.760,53.3106143,-0.0615801,123.6,2.39,0.136,-0.024,0.987,0,-0.62,0.35,4.11
528,41.840,53.3106148,-0.0615789,123.6,2.59,0.132,-0.027,0.981,0,-0.28,0.39,3.89
529,41.920,53.3106158,-0.0615773,123.6,3.76,0.130,-0.030,0.971,0,0.10,0.41,3.60
530,42.000,53.3106165,-0.0615760,123.5,3.00,0.129,-0.026,0.964,0,0.36,0.35,3.39
531,42.040,53.3106169,-0.0615754,123.5,3.01,0.136,-0.022,0.970,0,0.43,0.03,3.27
532,42.080,53.3106172,-0.0615745,123.5,2.95,0.149,-0.021,0.974,0,0.15,-0.49,3.10
533,42.160,53.3106178,-0.0615735,123.5,2.34,0.160,-0.022,0.980,0,-0.05,-0.87,2.98
534,42.240,53.3106184,-0.0615721,123.5,3.11,0.174,-0.030,0.987,0,-0.05,-1.32,2.74
535,42.320,53.3106191,-0.0615711,123.5,2.90,0.187,-0.040,0.990,0,0.46,-1.55,2.52
536,42.400,53.3106196,-0.0615704,123.5,1.75,0.193,-0.041,0.988,0,1.14,-1.52,2.42
537,42.480,53.3106201,-0.0615695,123.4,2.49,0.190,-0.040,0.982,0,1.85,-1.17,2.32
538,42.560,53.3106208,-0.0615687,123.4,1.97,0.189,-0.039,0.982,0,2.48,-0.97,2.22
539,42.640,53.3106214,-0.0615680,123.4,2.11,0.187,-0.033,0.979,0,3.05,-0.90,2.23
540,42.720,53.3106220,-0.0615670,123.4,2.38,0.204,-0.021,0.985,0,3.34,-1.27,2.31
541,42.800,53.3106226,-0.0615663,123.5,1.98,0.234,-0.005,0.991,0,3.26,-1.83,2.30
542,42.880,53.3106229,-0.0615655,123.5,1.28,0.265,0.012,0.991,0,2.61,-2.18,2.22
543,42.960,53.3106233,-0.0615647,123.5,1.67,0.289,0.019,0.988,0,1.53,-2.15,2.01
544,43.040,53.3106235,-0.0615644,123.5,0.76,0.310,0.015,0.988,0,0.51,-1.75,1.62
545,43.120,53.3106236,-0.0615641,123.5,0.48,0.315,-0.008,0.977,0,0.57,-1.12,1.02
546,43.240,53.3106238,-0.0615637,123.5,0.66,0.312,-0.020,0.972,0,1.39,-0.69,0.73
547,43.320,53.3106239,-0.0615635,123.5,0.38,0.305,-0.017,0.974,0,2.54,-0.50,0.35
548,43.400,53.3106240,-0.0615633,123.5,0.04,0.292,-0.011,0.979,0,3.78,-0.38,0.02
549,43.480,53.3106240,-0.0615633,123.5,0.41,0.262,0.000,0.984,0,4.67,-0.20,0.02
550,43.560,53.3106240,-0.0615633,123.5,0.15,0.226,0.027,0.983,0,4.35,0.13,0.00
551,43.640,53.3106240,-0.0615633,123.5,0.27,0.181,0.034,0.985,0,3.72,1.03,-0.12
552,43.720,53.3106241,-0.0615633,123.6,0.08,0.150,0.026,0.980,0,3.31,1.88,-0.01
553,43.800,53.3106242,-0.0615633,123.6,0.06,0.141,0.029,0.965,0,3.09,2.22,0.12
554,43.880,53.3106243,-0.0615633,123.6,0.05,0.137,0.040,0.968,0,2.89,2.01,0.08
555,43.960,53.3106243,-0.0615633,123.6,0.16,0.139,0.042,0.978,0,2.73,1.38,0.09
556,44.040,53.3106244,-0.0615632,123.6,0.21,0.149,0.046,0.979,0,2.41,0.58,0.04
557,44.120,53.3106245,-0.0615629,123.6,0.45,0.146,0.053,0.978,0,2.15,0.04,-0.05
558,44.200,53.3106247,-0.0615630,123.6,0.26,0.137,0.053,0.984,0,1.91,-0.18,-0.06
559,44.280,53.3106247,-0.0615630,123.6,0.28,0.138,0.048,0.982,0,1.72,-0.28,-0.05
560,44.360,53.3106247,-0.0615627,123.6,0.45,0.135,0.048,0.976,0,1.75,-0.15,-0.03
561,44.440,53.3106249,-0.0615627,123.6,0.18,0.134,0.048,0.978,0,1.81,-0.18,-0.05
562,44.520,53.3106250,-0.0615627,123.7,0.26,0.136,0.048,0.976,0,1.92,-0.19,-0.05
563,44.560,53.3106251,-0.0615627,123.7,0.21,0.140,0.051,0.981,0,1.91,-0.28,-0.08
564,44.640,53.3106253,-0.0615627,123.7,0.35,0.135,0.058,0.977,0,1.83,-0.21,-0.05
565,44.720,53.3106253,-0.0615625,123.7,0.27,0.140,0.064,0.981,0,1.38,-0.35,-0.04
566,44.800,53.3106253,-0.0615625,123.7,0.16,0.144,0.068,0.982,0,0.78,-0.34,-0.05
567,44.880,53.3106255,-0.0615625,123.6,0.35,0.147,0.068,0.987,0,0.25,-0.27,-0.02
568,44.960,53.3106256,-0.0615622,123.7,0.13,0.142,0.065,0.982,0,-0.12,-0.10,-0.02
569,45.000,53.3106256,-0.0615622,123.7,0.19,0.147,0.061,0.987,0,-0.36,-0.05,-0.01
570,45.040,53.3106257,-0.0615622,123.7,0.13,0.141,0.057,0.983,0,-0.29,0.19,-0.04
571,45.120,53.3106256,-0.0615622,123.6,0.16,0.140,0.051,0.984,0,-0.02,0.18,-0.01
572,45.200,53.3106256,-0.0615620,123.6,0.24,0.135,0.047,0.980,0,0.26,0.11,-0.06
573,45.280,53.3106257,-0.0615620,123.6,0.24,0.133,0.048,0.977,0,0.69,0.10,-0.06
574,45.360,53.3106259,-0.0615618,123.7,0.17,0.132,0.048,0.977,0,1.02,-0.02,-0.08
575,45.440,53.3106260,-0.0615618,123.7,0.23,0.139,0.049,0.985,0,1.43,-0.24,-0.04
576,45.520,53.3106260,-0.0615618,123.6,0.23,0.137,0.057,0.983,0,1.79,-0.18,-0.02
577,45.600,53.3106261,-0.0615617,123.6,0.07,0.135,0.064,0.979,0,1.91,-0.13,-0.02
578,45.680,53.3106263,-0.0615617,123.7,0.20,0.134,0.069,0.979,0,1.90,-0.15,-0.03
579,45.760,53.3106264,-0.0615616,123.6,0.15,0.129,0.072,0.972,0,1.83,-0.07,-0.08
580,45.840,53.3106265,-0.0615615,123.6,0.13,0.123,0.075,0.965,0,1.79,0.05,-0.05
581,45.920,53.3106269,-0.0615615,123.7,0.34,0.129,0.076,0.969,0,1.65,-0.03,-0.03
582,46.000,53.3106269,-0.0615614,123.7,0.17,0.127,0.073,0.970,0,1.66,-0.01,-0.03
583,46.080,53.3106269,-0.0615613,123.7,0.23,0.131,0.074,0.972,0,1.68,-0.13,-0.02
584,46.160,53.3106271,-0.0615614,123.7,0.32,0.131,0.076,0.972,0,1.79,-0.13,-0.02
585,46.240,53.3106272,-0.0615615,123.7,0.20,0.129,0.076,0.972,0,1.85,-0.17,-0.07
586,46.320,53.3106274,-0.0615615,123.7,0.21,0.128,0.080,0.969,0,1.95,-0.17,-0.07
587,46.400,53.3106274,-0.0615614,123.7,0.13,0.136,0.086,0.976,0,1.89,-0.28,-0.06
588,46.480,53.3106275,-0.0615612,123.7,0.31,0.131,0.089,0.973,0,1.78,-0.16,-0.08
589,46.520,53.3106276,-0.0615611,123.8,0.43,0.136,0.091,0.979,0,1.53,-0.29,-0.07
590,46.600,53.3106277,-0.0615610,123.8,0.16,0.140,0.092,0.982,0,1.27,-0.34,-0.09
591,46.680,53.3106278,-0.0615611,123.8,0.35,0.137,0.092,0.979,0,1.10,-0.29,-0.10
592,46.760,53.3106278,-0.0615608,123.8,0.39,0.129,0.090,0.970,0,1.06,-0.14,-0.11
593,46.840,53.3106280,-0.0615609,123.8,0.27,0.132,0.091,0.972,0,0.91,-0.20,-0.11
594,46.920,53.3106281,-0.0615609,123.9,0.16,0.126,0.090,0.964,0,0.91,-0.01,-0.11
595,46.960,53.3106281,-0.0615607,123.9,0.04,0.123,0.087,0.961,0,1.02,0.08,-0.11
596,47.000,53.3106282,-0.0615607,123.9,0.15,0.126,0.084,0.964,0,1.04,0.00,-0.12
597,47.080,53.3106283,-0.0615606,123.9,0.07,0.126,0.091,0.964,0,0.97,0.05,-0.14
598,47.160,53.3106283,-0.0615606,123.9,0.23,0.132,0.094,0.973,0,0.75,-0.01,-0.18
599,47.240,53.3106285,-0.0615605,123.9,0.10,0.136,0.093,0.977,0,0.43,-0.11,-0.23
600,47.320,53.3106286,-0.0615604,124.0,0.18,0.143,0.096,0.984,0,0.26,-0.27,-0.18
601,47.400,53.3106287,-0.0615602,124.0,0.15,0.147,0.096,0.990,0,0.18,-0.35,-0.16
602,47.440,53.3106287,-0.0615602,124.0,0.26,0.153,0.091,0.998,0,0.18,-0.54,-0.15
603,47.480,53.3106288,-0.0615601,124.0,0.05,0.148,0.089,0.990,0,0.51,-0.43,-0.11
604,47.560,53.3106290,-0.0615600,124.0,0.35,0.147,0.091,0.989,0,0.87,-0.41,-0.05
605,47.640,53.3106291,-0.0615600,124.1,0.16,0.142,0.093,0.982,0,1.04,-0.35,-0.08
606,47.720,53.3106291,-0.0615600,124.0,0.22,0.135,0.099,0.973,0,1.16,-0.18,-0.05
607,47.800,53.3106293,-0.0615600,124.1,0.44,0.131,0.106,0.967,0,1.15,-0.03,-0.02
608,47.880,53.3106293,-0.0615600,124.1,0.20,0.136,0.108,0.972,0,0.88,-0.13,0.00
609,47.960,53.3106294,-0.0615599,124.1,0.14,0.134,0.111,0.969,0,0.55,-0.01,0.00
610,48.040,53.3106296,-0.0615599,124.1,0.30,0.135,0.110,0.975,0,-0.01,-0.01,-0.05
611,48.120,53.3106296,-0.0615598,124.1,0.16,0.140,0.103,0.979,0,-0.31,-0.04,-0.06
612,48.200,53.3106297,-0.0615598,124.1,0.13,0.147,0.098,0.986,0,-0.43,-0.15,-0.03
613,48.280,53.3106298,-0.0615596,124.1,0.36,0.148,0.095,0.991,0,-0.47,-0.24,-0.02
614,48.360,53.3106299,-0.0615594,124.2,0.09,0.147,0.089,0.991,0,-0.40,-0.31,-0.06
615,48.440,53.3106300,-0.0615594,124.2,0.08,0.141,0.087,0.981,0,0.04,-0.15,-0.08
616,48.480,53.3106301,-0.0615594,124.2,0.20,0.139,0.087,0.981,0,0.15,-0.23,-0.15
617,48.560,53.3106302,-0.0615592,124.2,0.13,0.129,0.090,0.971,0,0.33,-0.09,-0.21
618,48.640,53.3106303,-0.0615592,124.2,0.10,0.130,0.092,0.967,0,0.35,-0.10,-0.22
619,48.720,53.3106305,-0.0615591,124.3,0.02,0.128,0.093,0.965,0,0.39,-0.04,-0.21
620,48.800,53.3106306,-0.0615591,124.3,0.13,0.135,0.097,0.977,0,0.16,-0.28,-0.18
621,48.880,53.3106306,-0.0615591,124.3,0.18,0.136,0.098,0.976,0,0.17,-0.21,-0.12
622,48.920,53.3106306,-0.0615591,124.3,0.08,0.143,0.096,0.982,0,0.13,-0.28,-0.06
623,48.960,53.3106306,-0.0615591,124.3,0.30,0.146,0.096,0.984,0,0.21,-0.25,-0.02
624,49.040,53.3106307,-0.0615591,124.3,0.04,0.152,0.096,0.995,0,0.10,-0.41,-0.02
625,49.120,53.3106307,-0.0615591,124.3,0.05,0.148,0.094,0.988,0,0.15,-0.35,-0.03
626,49.200,53.3106308,-0.0615591,124.3,0.14,0.154,0.095,0.993,0,0.22,-0.43,0.03
627,49.280,53.3106309,-0.0615590,124.3,0.16,0.156,0.095,0.997,0,0.08,-0.54,-0.01
628,49.360,53.3106309,-0.0615588,124.3,0.12,0.148,0.093,0.992,0,0.00,-0.50,-0.10
629,49.400,53.3106309,-0.0615590,124.3,0.22,0.140,0.093,0.980,0,0.11,-0.33,-0.11
630,49.440,53.3106310,-0.0615588,124.3,0.02,0.146,0.096,0.987,0,0.11,-0.41,-0.09
631,49.520,53.3106312,-0.0615588,124.3,0.16,0.143,0.095,0.988,0,0.00,-0.43,-0.15
632,49.600,53.3106312,-0.0615588,124.3,0.09,0.140,0.095,0.984,0,0.16,-0.33,-0.13
633,49.680,53.3106312,-0.0615586,124.3,0.15,0.149,0.096,0.992,0,0.25,-0.42,-0.06
634,49.760,53.3106313,-0.0615586,124.3,0.07,0.147,0.097,0.990,0,0.39,-0.33,-0.03
635,49.840,53.3106312,-0.0615586,124.4,0.27,0.145,0.097,0.985,0,0.54,-0.22,-0.01
636,49.920,53.3106313,-0.0615586,124.4,0.04,0.138,0.098,0.977,0,0.68,-0.05,-0.02
637,50.000,53.3106313,-0.0615586,124.4,0.20,0.135,0.100,0.972,0,0.78,0.03,0.02
638,50.080,53.3106313,-0.0615586,124.4,0.04,0.126,0.099,0.961,0,0.70,0.22,-0.03
639,50.160,53.3106314,-0.0615586,124.4,0.17,0.125,0.098,0.961,0,0.66,0.26,-0.04
640,50.240,53.3106315,-0.0615585,124.4,0.14,0.122,0.098,0.959,0,0.48,0.21,-0.10
641,50.320,53.3106316,-0.0615584,124.4,0.10,0.124,0.096,0.959,0,0.39,0.18,-0.13
642,50.400,53.3106316,-0.0615584,124.4,0.08,0.131,0.095,0.969,0,0.24,-0.03,-0.14
643,50.440,53.3106318,-0.0615584,124.4,0.07,0.137,0.096,0.980,0,0.18,-0.23,-0.11
644,50.520,53.3106318,-0.0615581,124.4,0.13,0.141,0.097,0.982,0,0.00,-0.35,-0.15
645,50.600,53.3106318,-0.0615581,124.4,0.06,0.141,0.098,0.981,0,-0.06,-0.30,-0.15
646,50.680,53.3106319,-0.0615581,124.4,0.05,0.148,0.099,0.990,0,-0.21,-0.42,-0.11
647,50.760,53.3106321,-0.0615579,124.5,0.06,0.147,0.095,0.991,0,-0.33,-0.45,-0.15
648,50.840,53.3106321,-0.0615579,124.5,0.06,0.144,0.093,0.986,0,-0.27,-0.40,-0.13
649,50.880,53.3106322,-0.0615578,124.5,0.02,0.141,0.091,0.982,0,-0.15,-0.34,-0.14
650,50.920,53.3106323,-0.0615577,124.5,0.07,0.148,0.090,0.990,0,0.00,-0.50,-0.10
651,51.000,53.3106324,-0.0615576,124.5,0.17,0.147,0.090,0.989,0,0.12,-0.56,-0.13
652,51.080,53.3106324,-0.0615575,124.5,0.21,0.142,0.093,0.978,0,0.29,-0.40,-0.17
653,51.160,53.3106324,-0.0615574,124.5,0.06,0.147,0.095,0.986,0,0.27,-0.50,-0.18
654,51.240,53.3106325,-0.0615573,124.5,0.09,0.148,0.097,0.988,0,0.45,-0.44,-0.10
655,51.320,53.3106326,-0.0615572,124.5,0.14,0.139,0.098,0.977,0,0.41,-0.28,-0.14
656,51.400,53.3106326,-0.0615572,124.6,0.16,0.139,0.098,0.978,0,0.26,-0.31,-0.15
657,51.480,53.3106326,-0.0615571,124.6,0.12,0.147,0.099,0.989,0,0.21,-0.46,-0.05
658,51.560,53.3106327,-0.0615570,124.6,0.19,0.145,0.100,0.986,0,0.25,-0.34,-0.03
659,51.640,53.3106329,-0.0615568,124.6,0.26,0.151,0.099,0.994,0,0.07,-0.52,-0.04
660,51.720,53.3106330,-0.0615567,124.6,0.05,0.151,0.096,0.994,0,0.07,-0.53,-0.05
661,51.800,53.3106330,-0.0615567,124.6,0.02,0.143,0.096,0.983,0,0.35,-0.26,-0.04
662,51.880,53.3106330,-0.0615567,124.6,0.09,0.134,0.095,0.974,0,0.38,-0.17,-0.14
663,51.960,53.3106332,-0.0615565,124.6,0.24,0.138,0.095,0.980,0,0.35,-0.35,-0.14
664,52.040,53.3106332,-0.0615564,124.6,0.09,0.133,0.096,0.975,0,0.32,-0.28,-0.22
665,52.120,53.3106332,-0.0615563,124.6,0.04,0.130,0.098,0.971,0,0.43,-0.13,-0.20
666,52.200,53.3106333,-0.0615563,124.6,0.04,0.136,0.098,0.980,0,0.25,-0.35,-0.19
667,52.280,53.3106333,-0.0615561,124.6,0.09,0.135,0.098,0.976,0,0.24,-0.28,-0.18
668,52.360,53.3106335,-0.0615560,124.7,0.05,0.128,0.097,0.967,0,0.41,-0.02,-0.19
669,52.440,53.3106335,-0.0615559,124.7,0.06,0.124,0.097,0.962,0,0.55,0.05,-0.15
670,52.520,53.3106335,-0.0615559,124.7,0.24,0.131,0.098,0.970,0,0.40,-0.18,-0.19
671,52.600,53.3106335,-0.0615558,124.7,0.07,0.127,0.098,0.964,0,0.44,-0.07,-0.24
672,52.680,53.3106335,-0.0615557,124.7,0.11,0.126,0.100,0.964,0,0.57,0.00,-0.19
673,52.760,53.3106336,-0.0615556,124.7,0.14,0.128,0.101,0.968,0,0.30,-0.13,-0.23
674,52.840,53.3106335,-0.0615555,124.7,0.23,0.129,0.102,0.967,0,0.18,-0.09,-0.24
675,52.920,53.3106336,-0.0615554,124.7,0.05,0.131,0.102,0.970,0,0.10,-0.09,-0.21
676,53.000,53.3106336,-0.0615554,124.7,0.24,0.136,0.102,0.977,0,0.00,-0.18,-0.16
677,53.080,53.3106336,-0.0615552,124.7,0.13,0.143,0.101,0.984,0,-0.07,-0.29,-0.13
678,53.160,53.3106336,-0.0615551,124.8,0.04,0.148,0.101,0.989,0,0.01,-0.33,-0.05
679,53.240,53.3106336,-0.0615550,124.8,0.18,0.155,0.101,0.998,0,-0.03,-0.50,-0.03
680,53.320,53.3106336,-0.0615548,124.8,0.04,0.153,0.100,0.996,0,-0.02,-0.51,-0.06
681,53.400,53.3106337,-0.0615546,124.8,0.21,0.157,0.099,0.998,0,0.11,-0.54,-0.01
682,53.480,53.3106337,-0.0615545,124.8,0.15,0.149,0.100,0.990,0,0.33,-0.38,-0.01
683,53.560,53.3106338,-0.0615543,124.8,0.04,0.149,0.102,0.987,0,0.55,-0.31,0.05
684,53.640,53.3106340,-0.0615542,124.8,0.03,0.141,0.102,0.977,0,0.70,-0.11,0.03
685,53.720,53.3106340,-0.0615541,124.9,0.13,0.137,0.104,0.973,0,0.85,0.02,0.06
686,53.800,53.3106340,-0.0615539,124.9,0.03,0.129,0.104,0.965,0,0.65,0.10,-0.05
687,53.840,53.3106340,-0.0615538,124.9,0.03,0.139,0.104,0.978,0,0.35,-0.14,-0.07
688,53.920,53.3106341,-0.0615537,124.9,0.09,0.137,0.104,0.975,0,0.28,-0.06,-0.05
689,54.000,53.3106341,-0.0615535,124.9,0.17,0.147,0.104,0.984,0,0.15,-0.21,0.01
690,54.080,53.3106342,-0.0615533,124.9,0.21,0.150,0.102,0.989,0,-0.09,-0.35,-0.02
691,54.160,53.3106342,-0.0615531,124.9,0.11,0.151,0.102,0.991,0,0.04,-0.31,0.05
692,54.240,53.3106343,-0.0615529,124.9,0.15,0.151,0.101,0.990,0,0.09,-0.29,0.06
693,54.320,53.3106343,-0.0615528,124.9,0.11,0.155,0.100,0.998,0,-0.02,-0.47,0.02
694,54.400,53.3106344,-0.0615527,125.0,0.14,0.150,0.099,0.992,0,0.11,-0.36,0.00
695,54.480,53.3106344,-0.0615526,125.0,0.15,0.144,0.099,0.982,0,0.27,-0.20,0.00
696,54.560,53.3106344,-0.0615525,125.0,0.13,0.141,0.101,0.977,0,0.34,-0.10,0.00
697,54.640,53.3106345,-0.0615524,125.0,0.03,0.133,0.101,0.971,0,0.16,0.00,-0.13
698,54.720,53.3106345,-0.0615523,125.0,0.11,0.124,0.100,0.960,0,0.26,0.23,-0.14
699,54.800,53.3106345,-0.0615522,125.0,0.03,0.128,0.098,0.964,0,0.31,0.18,-0.05
700,54.840,53.3106345,-0.0615520,125.0,0.08,0.127,0.097,0.964,0,0.33,0.20,-0.05
701,54.920,53.3106347,-0.0615519,125.1,0.06,0.128,0.096,0.965,0,0.43,0.18,-0.05
702,55.000,53.3106347,-0.0615518,125.1,0.09,0.127,0.095,0.963,0,0.61,0.19,-0.04
703,55.080,53.3106348,-0.0615516,125.1,0.11,0.134,0.096,0.973,0,0.57,-0.08,-0.06
704,55.200,53.3106348,-0.0615515,125.1,0.20,0.128,0.097,0.967,0,0.56,-0.08,-0.15
705,55.280,53.3106348,-0.0615514,125.1,0.06,0.138,0.099,0.979,0,0.48,-0.33,-0.13
706,55.320,53.3106349,-0.0615513,125.1,0.11,0.139,0.101,0.979,0,0.53,-0.30,-0.10
707,55.400,53.3106350,-0.0615511,125.1,0.11,0.136,0.101,0.975,0,0.53,-0.20,-0.10
708,55.480,53.3106350,-0.0615510,125.1,0.07,0.134,0.102,0.970,0,0.61,-0.03,-0.07
709,55.560,53.3106351,-0.0615509,125.1,0.15,0.133,0.102,0.967,0,0.55,0.06,-0.09
710,55.640,53.3106353,-0.0615508,125.2,0.13,0.127,0.103,0.960,0,0.61,0.29,-0.07
711,55.720,53.3106354,-0.0615507,125.2,0.20,0.131,0.103,0.966,0,0.44,0.19,-0.07
712,55.800,53.3106354,-0.0615506,125.2,0.13,0.131,0.101,0.967,0,0.39,0.16,-0.07
713,55.880,53.3106354,-0.0615504,125.2,0.12,0.128,0.100,0.966,0,0.45,0.16,-0.05
714,55.960,53.3106355,-0.0615504,125.2,0.15,0.127,0.098,0.966,0,0.43,0.02,-0.13
715,56.040,53.3106356,-0.0615503,125.3,0.25,0.125,0.096,0.964,0,0.61,-0.03,-0.16
716,56.120,53.3106357,-0.0615501,125.3,0.07,0.132,0.098,0.970,0,0.66,-0.22,-0.14
717,56.200,53.3106357,-0.0615500,125.3,0.25,0.132,0.102,0.969,0,0.70,-0.17,-0.15
718,56.280,53.3106357,-0.0615499,125.3,0.06,0.135,0.105,0.972,0,0.54,-0.22,-0.17
719,56.360,53.3106357,-0.0615499,125.3,0.02,0.131,0.111,0.973,0,0.37,-0.13,-0.17
720,56.440,53.3106358,-0.0615499,125.3,0.04,0.113,0.117,0.978,0,-0.09,-0.13,-0.10
721,56.520,53.3106359,-0.0615497,125.3,0.28,0.073,0.118,0.970,0,-0.83,-0.11,0.03
722,56.600,53.3106360,-0.0615494,125.3,0.53,0.054,0.116,0.970,0,-1.69,-0.20,0.18
723,56.680,53.3106361,-0.0615489,125.3,0.68,0.042,0.112,0.966,0,-2.39,0.01,0.25
724,56.760,53.3106362,-0.0615487,125.3,0.76,0.039,0.104,0.970,0,-2.97,0.26,0.49
725,56.800,53.3106364,-0.0615485,125.3,0.65,0.041,0.097,0.970,0,-3.60,0.58,0.65
726,56.880,53.3106367,-0.0615480,125.3,1.28,0.057,0.091,0.984,0,-4.04,0.81,0.86
727,56.960,53.3106371,-0.0615474,125.3,1.49,0.061,0.077,0.994,0,-4.44,0.90,1.02
728,57.040,53.3106373,-0.0615470,125.3,1.13,0.049,0.060,0.992,0,-4.59,1.03,1.17
729,57.120,53.3106376,-0.0615465,125.3,1.04,0.046,0.052,0.997,0,-4.40,0.94,1.41
730,57.200,53.3106377,-0.0615462,125.2,0.69,0.042,0.043,0.998,0,-4.18,0.86,1.65
731,57.280,53.3106379,-0.0615453,125.2,1.53,0.028,0.036,0.986,0,-4.10,0.98,1.92
732,57.360,53.3106385,-0.0615448,125.2,2.07,0.028,0.032,0.992,0,-4.23,1.03,2.46
733,57.440,53.3106392,-0.0615436,125.3,2.85,0.035,0.030,1.002,0,-4.29,1.32,3.07
734,57.520,53.3106396,-0.0615428,125.2,1.83,0.032,0.021,1.003,0,-4.70,1.83,3.54
735,57.600,53.3106402,-0.0615422,125.2,2.13,0.022,0.012,0.996,0,-4.94,2.45,4.03
736,57.680,53.3106408,-0.0615411,125.1,2.88,0.020,0.003,0.998,0,-4.76,2.61,4.43
737,57.760,53.3106415,-0.0615398,125.1,3.03,0.006,-0.001,0.988,0,-4.08,2.63,4.31
738,57.840,53.3106421,-0.0615389,125.1,2.64,-0.009,-0.004,0.973,0,-3.08,2.31,3.57
739,57.920,53.3106431,-0.0615370,125.1,4.31,-0.026,-0.001,0.952,0,-1.05,1.38,2.14
740,58.000,53.3106439,-0.0615357,125.1,3.52,-0.020,0.012,0.960,0,1.22,-0.09,0.52
741,58.080,53.3106446,-0.0615344,125.0,3.51,-0.003,0.036,0.969,0,2.40,-1.04,-1.03
742,58.200,53.3106459,-0.0615324,124.9,3.77,0.006,0.031,0.984,0,3.06,-1.44,-2.51
743,58.280,53.3106470,-0.0615308,125.0,3.95,0.012,0.021,0.997,0,3.73,-1.91,-3.45
744,58.360,53.3106476,-0.0615293,124.9,3.64,0.017,0.017,0.997,0,3.66,-1.85,-3.17
745,58.440,53.3106487,-0.0615272,124.8,5.07,0.012,-0.007,0.997,0,2.95,-1.26,-2.04
746,58.520,53.3106498,-0.0615251,124.8,5.21,0.006,-0.046,0.989,0,2.65,-1.09,-0.21
747,58.600,53.3106508,-0.0615235,124.8,3.96,0.009,-0.057,0.979,0,2.87,-1.11,2.28
748,58.680,53.3106522,-0.0615218,124.7,5.18,0.021,-0.049,0.984,0,2.65,-0.50,5.05
749,58.760,53.3106534,-0.0615195,124.7,5.33,0.040,-0.044,1.000,0,1.80,0.62,7.38
750,58.840,53.3106543,-0.0615176,124.7,4.87,0.062,-0.032,0.998,0,1.27,1.50,8.90
751,58.920,53.3106559,-0.0615157,124.6,6.01,0.096,-0.016,1.004,0,0.94,2.13,9.69
752,59.000,53.3106573,-0.0615138,124.6,5.28,0.119,-0.009,1.015,0,0.42,2.75,9.93
753,59.080,53.3106585,-0.0615125,124.5,4.59,0.123,-0.009,1.018,0,-0.09,2.88,9.90
754,59.160,53.3106602,-0.0615111,124.4,5.98,0.109,-0.009,1.020,0,-0.28,2.95,9.81
755,59.240,53.3106618,-0.0615095,124.4,5.77,0.088,-0.014,1.031,0,-0.69,3.39,9.87
756,59.320,53.3106632,-0.0615073,124.5,5.05,0.052,-0.018,1.023,0,-0.98,3.59,9.92
757,59.400,53.3106646,-0.0615058,124.4,5.70,0.041,-0.014,1.032,0,-1.20,3.46,9.94
758,59.480,53.3106663,-0.0615041,124.4,5.43,0.033,-0.010,1.029,0,-1.59,3.32,9.85
759,59.560,53.3106677,-0.0615020,124.4,5.80,0.034,-0.005,1.032,0,-2.28,3.12,9.78
760,59.640,53.3106694,-0.0615004,124.4,5.59,0.032,0.000,1.024,0,-3.16,3.18,9.45
761,59.720,53.3106709,-0.0614986,124.3,5.88,0.031,0.010,1.028,0,-3.83,3.63,8.61
762,59.800,53.3106725,-0.0614966,124.3,6.12,0.029,0.020,1.029,0,-3.91,3.80,7.00
763,59.880,53.3106742,-0.0614949,124.3,6.05,0.032,0.025,1.042,0,-3.36,4.12,4.75
764,59.960,53.3106758,-0.0614928,124.3,5.93,0.021,0.031,1.031,0,-1.81,4.70,1.83
765,60.040,53.3106774,-0.0614906,124.3,6.57,0.015,0.036,1.019,0,-0.11,4.46,-1.12
766,60.120,53.3106792,-0.0614886,124.3,6.42,0.013,0.020,1.022,0,1.00,3.59,-3.22
767,60.200,53.3106809,-0.0614862,124.3,6.74,0.002,0.003,1.012,0,1.83,2.92,-4.31
768,60.280,53.3106828,-0.0614840,124.3,6.88,-0.015,-0.008,0.985,0,2.44,2.40,-4.51
769,60.360,53.3106844,-0.0614819,124.2,6.23,-0.012,-0.022,0.977,0,2.35,0.45,-3.96
770,60.440,53.3106859,-0.0614798,124.2,6.56,0.015,-0.040,1.023,0,2.29,-0.60,-2.88
771,60.520,53.3106876,-0.0614785,124.2,5.48,0.020,-0.045,1.042,0,2.94,1.02,-1.70
772,60.600,53.3106894,-0.0614759,124.2,7.07,0.018,-0.032,1.032,0,3.36,2.65,-0.44
773,60.680,53.3106911,-0.0614737,124.3,6.03,0.019,-0.025,1.023,0,2.97,3.85,0.66
774,60.720,53.3106919,-0.0614727,124.3,6.07,0.019,-0.021,1.028,0,2.44,5.66,1.70
775,60.800,53.3106936,-0.0614708,124.3,6.38,0.013,-0.010,1.009,0,2.08,7.29,2.65
776,60.880,53.3106952,-0.0614686,124.3,6.45,0.008,0.003,0.998,0,0.96,7.22,3.16
777,60.960,53.3106969,-0.0614666,124.3,6.46,-0.008,0.005,0.993,0,-0.47,5.93,3.44
778,61.040,53.3106987,-0.0614644,124.3,6.80,-0.009,0.006,0.991,0,-1.44,4.02,3.81
779,61.120,53.3107005,-0.0614620,124.3,6.67,-0.004,0.010,0.988,0,-2.38,1.87,3.90
780,61.200,53.3107020,-0.0614600,124.4,5.83,-0.007,0.014,0.983,0,-3.39,-0.29,3.49
781,61.280,53.3107036,-0.0614580,124.4,6.52,-0.007,0.013,0.973,0,-3.61,-1.65,2.67
782,61.360,53.3107052,-0.0614558,124.4,6.20,0.006,0.012,0.977,0,-3.25,-2.06,1.38
783,61.440,53.3107067,-0.0614537,124.4,6.31,0.007,0.017,0.985,0,-2.40,-1.80,-0.33
784,61.520,53.3107084,-0.0614515,124.4,6.62,0.001,0.019,0.981,0,-1.24,-1.44,-2.28
785,61.600,53.3107100,-0.0614493,124.4,6.02,-0.002,0.020,0.972,0,0.24,-1.32,-4.12
786,61.680,53.3107114,-0.0614474,124.4,5.49,0.002,0.019,0.982,0,1.57,-1.66,-5.69
787,61.760,53.3107129,-0.0614452,124.4,6.27,0.010,0.010,0.998,0,2.48,-2.04,-6.77
788,61.840,53.3107145,-0.0614428,124.4,6.56,0.006,-0.004,0.990,0,3.10,-2.25,-7.10
789,61.920,53.3107159,-0.0614404,124.5,6.36,0.004,-0.013,0.992,0,3.77,-1.98,-6.52
790,62.000,53.3107174,-0.0614385,124.5,5.34,0.003,-0.018,0.989,0,4.04,-1.87,-5.59
791,62.080,53.3107189,-0.0614367,124.4,6.06,0.011,-0.028,0.987,0,3.91,-1.77,-3.96
792,62.160,53.3107206,-0.0614346,124.3,6.41,0.020,-0.033,0.984,0,3.72,-1.47,-2.07
793,62.240,53.3107220,-0.0614324,124.4,6.01,0.028,-0.036,0.991,0,3.09,-1.06,0.10
794,62.320,53.3107236,-0.0614309,124.4,5.67,0.036,-0.040,0.984,0,1.90,-0.94,2.43
795,62.400,53.3107252,-0.0614290,124.3,6.28,0.054,-0.037,0.981,0,0.77,-0.90,4.57
796,62.480,53.3107266,-0.0614274,124.3,4.89,0.069,-0.028,0.975,0,0.28,-1.13,5.58
797,62.560,53.3107280,-0.0614257,124.3,5.43,0.076,-0.014,0.974,0,0.58,-1.35,5.53
798,62.640,53.3107293,-0.0614239,124.3,5.41,0.096,0.005,0.980,0,1.18,-1.66,4.77
799,62.720,53.3107306,-0.0614222,124.3,4.52,0.113,0.017,0.983,0,1.07,-1.36,3.95
800,62.800,53.3107317,-0.0614207,124.3,4.48,0.118,0.010,0.993,0,0.28,-0.81,3.62
801,62.880,53.3107330,-0.0614191,124.3,4.97,0.111,-0.003,0.995,0,-1.03,-0.06,4.27
802,62.960,53.3107342,-0.0614180,124.3,4.20,0.100,-0.015,0.981,0,-2.55,0.51,5.51
803,63.040,53.3107352,-0.0614169,124.3,3.60,0.090,-0.025,0.977,0,-3.60,0.89,6.55
804,63.120,53.3107362,-0.0614156,124.3,3.96,0.089,-0.030,0.979,0,-3.61,0.70,6.88
805,63.200,53.3107373,-0.0614143,124.3,4.20,0.093,-0.026,0.976,0,-3.13,0.31,6.56
806,63.280,53.3107383,-0.0614132,124.4,3.46,0.096,-0.019,0.974,0,-2.26,0.09,5.70
807,63.360,53.3107392,-0.0614123,124.4,3.25,0.106,-0.015,0.985,0,-1.44,-0.07,4.57
808,63.440,53.3107400,-0.0614112,124.3,3.54,0.108,-0.014,0.981,0,-0.76,-0.07,3.37
809,63.520,53.3107410,-0.0614104,124.4,2.96,0.108,-0.012,0.979,0,-0.20,-0.02,2.41
810,63.600,53.3107417,-0.0614097,124.4,2.71,0.110,-0.012,0.985,0,0.20,0.07,1.62
811,63.680,53.3107424,-0.0614087,124.4,2.96,0.112,-0.012,0.989,0,0.75,0.20,0.94
812,63.760,53.3107432,-0.0614080,124.4,2.58,0.112,-0.013,0.988,0,1.33,0.26,0.24
813,63.840,53.3107438,-0.0614073,124.4,2.12,0.123,-0.016,1.001,0,1.84,-0.08,-0.30
814,63.920,53.3107443,-0.0614067,124.4,2.04,0.127,-0.020,1.006,0,2.40,-0.35,-0.73
815,64.000,53.3107448,-0.0614061,124.4,2.22,0.121,-0.015,1.002,0,2.97,-0.29,-1.03
816,64.080,53.3107455,-0.0614056,124.5,2.01,0.113,-0.003,1.003,0,2.93,-0.22,-1.01
817,64.160,53.3107459,-0.0614051,124.5,1.50,0.113,0.000,1.014,0,2.52,-0.34,-0.93
818,64.240,53.3107462,-0.0614046,124.5,1.55,0.106,-0.010,1.004,0,2.55,-0.30,-0.86
819,64.320,53.3107467,-0.0614042,124.5,1.42,0.102,-0.009,0.994,0,2.94,-0.30,-0.56
820,64.400,53.3107470,-0.0614041,124.5,0.73,0.107,0.007,0.991,0,2.81,-0.49,-0.26
821,64.480,53.3107472,-0.0614038,124.5,0.88,0.110,0.022,0.985,0,2.17,-0.40,-0.15
822,64.560,53.3107473,-0.0614034,124.5,0.91,0.110,0.035,0.978,0,1.01,-0.05,0.02
823,64.640,53.3107475,-0.0614030,124.5,0.68,0.112,0.051,0.976,0,-0.96,0.33,0.26
824,64.720,53.3107475,-0.0614028,124.5,0.42,0.118,0.043,0.978,0,-3.27,0.55,0.21
825,64.800,53.3107475,-0.0614027,124.6,0.13,0.111,0.010,0.977,0,-4.48,0.69,0.08
826,64.880,53.3107475,-0.0614026,124.6,0.19,0.095,-0.029,0.982,0,-4.34,0.62,-0.09
827,64.960,53.3107475,-0.0614025,124.6,0.10,0.064,-0.056,0.980,0,-2.81,0.57,-0.15
828,65.040,53.3107475,-0.0614026,124.6,0.31,0.040,-0.068,0.988,0,-0.54,0.36,-0.18
829,65.120,53.3107476,-0.0614028,124.7,0.46,0.022,-0.068,0.991,0,2.29,0.18,-0.22
830,65.240,53.3107477,-0.0614031,124.7,0.46,0.012,-0.051,0.994,0,4.97,0.28,-0.15
831,65.320,53.3107477,-0.0614031,124.7,0.25,0.000,-0.023,0.994,0,6.97,0.36,-0.06
832,65.400,53.3107477,-0.0614031,124.7,0.31,-0.006,0.005,0.994,0,8.23,0.21,-0.01
833,65.480,53.3107478,-0.0614035,124.8,0.60,-0.005,0.040,0.999,0,8.61,-0.10,0.10
834,65.560,53.3107478,-0.0614036,124.8,0.31,-0.003,0.071,1.005,0,7.82,-0.50,0.23
835,65.640,53.3107478,-0.0614036,124.8,0.17,0.003,0.074,1.002,0,6.50,-0.91,0.05
836,65.720,53.3107478,-0.0614036,124.8,0.15,0.007,0.072,0.989,0,5.34,-0.86,-0.19
837,65.800,53.3107478,-0.0614038,124.8,0.48,0.003,0.095,0.991,0,4.09,-0.64,0.01
838,65.880,53.3107478,-0.0614039,124.8,0.06,0.003,0.105,0.988,0,2.34,-0.52,0.15
839,65.960,53.3107477,-0.0614036,124.8,0.86,0.007,0.101,0.978,0,0.58,-0.21,0.00
840,66.040,53.3107477,-0.0614034,124.9,0.32,0.001,0.120,0.980,0,-1.16,0.07,0.18
841,66.120,53.3107477,-0.0614032,124.8,0.46,0.012,0.129,0.986,0,-3.86,0.38,0.29
842,66.240,53.3107476,-0.0614028,124.8,0.56,0.019,0.092,0.980,0,-6.33,0.98,0.00
843,66.320,53.3107476,-0.0614027,124.9,0.30,0.007,0.052,0.983,0,-7.48,1.64,-0.23
844,66.400,53.3107476,-0.0614024,124.9,0.49,-0.005,0.026,0.994,0,-7.55,1.74,-0.16
845,66.480,53.3107476,-0.0614022,124.9,0.26,-0.013,-0.002,0.995,0,-7.09,1.47,-0.14
846,66.560,53.3107477,-0.0614022,124.9,0.19,-0.018,-0.011,0.996,0,-6.03,0.96,-0.01
847,66.640,53.3107477,-0.0614020,124.9,0.20,-0.009,-0.002,0.999,0,-5.36,0.46,0.09
848,66.720,53.3107476,-0.0614019,124.9,0.54,-0.007,-0.017,0.996,0,-5.06,0.16,-0.03
849,66.800,53.3107477,-0.0614017,124.9,0.20,-0.005,-0.033,0.992,0,-4.87,0.06,-0.17
850,66.880,53.3107478,-0.0614017,125.0,0.13,0.009,-0.033,0.993,0,-4.40,-0.30,-0.17
851,66.960,53.3107478,-0.0614014,125.0,0.19,0.001,-0.051,0.959,0,-3.84,-0.12,-0.39
852,67.040,53.3107478,-0.0614014,125.0,0.10,-0.013,-0.061,0.960,0,-2.94,0.13,-0.42
853,67.120,53.3107478,-0.0614010,125.0,0.30,-0.005,-0.049,0.964,0,-2.14,-0.07,-0.30
854,67.240,53.3107478,-0.0614010,125.0,0.30,-0.006,-0.044,0.964,0,-1.38,-0.26,-0.17
855,67.320,53.3107477,-0.0614010,125.0,0.32,-0.016,-0.054,0.966,0,-0.75,-0.16,-0.19
856,67.400,53.3107478,-0.0614008,125.0,0.19,-0.006,-0.049,0.992,0,-0.12,-0.37,-0.08
857,67.480,53.3107478,-0.0614009,125.0,0.13,0.007,-0.045,0.999,0,0.27,-0.62,-0.07
858,67.560,53.3107477,-0.0614009,125.0,0.17,0.001,-0.048,0.998,0,0.72,-0.37,-0.04
859,67.640,53.3107478,-0.0614005,125.0,0.27,0.000,-0.047,0.995,0,1.08,-0.10,-0.06
860,67.720,53.3107479,-0.0614005,125.0,0.20,-0.003,-0.041,0.993,0,1.30,0.11,-0.10
861,67.800,53.3107479,-0.0614004,125.1,0.11,-0.008,-0.048,0.994,0,1.58,0.09,-0.24
862,67.880,53.3107479,-0.0614004,125.1,0.12,-0.017,-0.060,0.989,0,2.32,-0.03,-0.32
863,67.960,53.3107481,-0.0614003,125.1,0.37,-0.021,-0.056,0.986,0,3.20,-0.22,-0.24
864,68.040,53.3107482,-0.0614003,125.1,0.31,-0.022,-0.043,0.984,0,4.11,-0.24,-0.09
865,68.120,53.3107483,-0.0614003,125.1,0.30,-0.027,-0.032,0.979,0,4.63,-0.24,-0.10
866,68.240,53.3107485,-0.0614002,125.1,0.19,-0.031,-0.018,0.975,0,4.82,-0.29,-0.04
867,68.320,53.3107485,-0.0614001,125.1,0.29,-0.026,0.002,0.975,0,4.74,-0.28,0.04
868,68.400,53.3107485,-0.0614001,125.1,0.31,-0.028,0.014,0.972,0,4.12,-0.22,-0.05
869,68.480,53.3107486,-0.0614001,125.1,0.22,-0.021,0.019,0.978,0,3.29,-0.28,-0.11
870,68.560,53.3107487,-0.0614001,125.1,0.22,-0.018,0.024,0.978,0,2.54,-0.18,-0.05
871,68.640,53.3107489,-0.0613999,125.2,0.02,-0.007,0.031,0.989,0,1.63,-0.16,0.01
872,68.720,53.3107490,-0.0613998,125.2,0.11,-0.008,0.029,0.994,0,0.46,-0.13,-0.05
873,68.800,53.3107490,-0.0613998,125.2,0.19,-0.006,0.021,1.000,0,-0.38,-0.11,-0.06
874,68.880,53.3107490,-0.0613996,125.2,0.10,-0.013,0.011,0.999,0,-0.86,0.01,-0.08
875,68.960,53.3107491,-0.0613996,125.2,0.15,-0.017,0.003,1.002,0,-0.90,0.12,-0.05
876,69.000,53.3107491,-0.0613996,125.2,0.13,-0.023,-0.002,1.002,0,-0.74,0.21,-0.04
877,69.040,53.3107492,-0.0613996,125.2,0.15,-0.024,-0.002,1.007,0,-0.39,0.25,0.02
878,69.120,53.3107493,-0.0613994,125.2,0.26,-0.032,0.000,1.006,0,-0.04,0.29,0.06
879,69.200,53.3107496,-0.0613994,125.2,0.47,-0.041,0.000,1.008,0,0.13,0.24,0.06
880,69.280,53.3107497,-0.0613991,125.2,0.52,-0.054,0.000,1.004,0,0.32,0.25,0.04
881,69.360,53.3107499,-0.0613991,125.2,0.66,-0.063,0.000,1.004,0,0.64,0.21,0.08
882,69.440,53.3107502,-0.0613989,125.2,0.83,-0.079,0.004,0.997,0,0.99,0.31,0.14
883,69.520,53.3107504,-0.0613986,125.2,0.97,-0.092,0.011,0.993,0,0.94,0.25,0.23
884,69.600,53.3107509,-0.0613982,125.2,1.13,-0.105,0.019,0.987,0,0.72,0.23,0.36
885,69.680,53.3107510,-0.0613979,125.3,1.09,-0.107,0.025,0.987,0,0.09,0.13,0.44
886,69.760,53.3107516,-0.0613974,125.3,1.55,-0.115,0.026,0.980,0,-0.78,0.10,0.50
887,69.840,53.3107521,-0.0613967,125.3,1.83,-0.109,0.026,0.988,0,-1.78,-0.10,0.63
888,69.920,53.3107526,-0.0613962,125.3,1.67,-0.103,0.021,0.995,0,-2.78,-0.22,0.70
889,70.000,53.3107530,-0.0613957,125.3,1.74,-0.096,0.011,0.998,0,-3.58,-0.32,0.72
890,70.080,53.3107535,-0.0613945,125.3,2.49,-0.090,0.001,0.999,0,-4.03,-0.49,0.81
891,70.160,53.3107542,-0.0613938,125.3,2.43,-0.086,-0.009,1.001,0,-4.29,-0.66,0.79
892,70.240,53.3107548,-0.0613931,125.3,2.16,-0.080,-0.027,1.000,0,-4.15,-0.94,0.65
893,70.320,53.3107554,-0.0613923,125.4,2.34,-0.079,-0.042,0.991,0,-3.16,-0.85,0.48
894,70.400,53.3107562,-0.0613914,125.4,2.84,-0.080,-0.049,0.990,0,-1.74,-0.63,0.31
895,70.480,53.3107570,-0.0613907,125.4,2.72,-0.082,-0.050,0.992,0,-0.42,-0.34,0.12
896,70.560,53.3107578,-0.0613899,125.4,2.94,-0.083,-0.044,0.992,0,0.72,0.15,0.01
897,70.640,53.3107584,-0.0613889,125.4,2.82,-0.083,-0.035,0.993,0,1.33,0.45,-0.03
898,70.720,53.3107595,-0.0613879,125.4,3.46,-0.083,-0.028,0.996,0,1.75,0.48,-0.08
899,70.800,53.3107604,-0.0613869,125.4,3.58,-0.084,-0.024,0.996,0,1.87,0.00,-0.25
900,70.880,53.3107613,-0.0613859,125.5,3.17,-0.084,-0.019,0.992,0,2.04,-0.25,-0.56
901,70.960,53.3107622,-0.0613849,125.4,3.46,-0.084,-0.014,0.993,0,2.12,-0.31,-0.84
902,71.000,53.3107627,-0.0613841,125.4,3.74,-0.090,-0.005,0.991,0,2.15,-0.02,-1.08
903,71.080,53.3107638,-0.0613830,125.5,3.93,-0.080,0.003,0.982,0,1.41,0.23,-1.22
904,71.160,53.3107648,-0.0613819,125.5,3.63,-0.057,0.005,0.984,0,0.56,0.36,-1.34
905,71.240,53.3107658,-0.0613808,125.5,3.77,-0.041,0.009,0.982,0,0.33,0.60,-1.76
906,71.320,53.3107668,-0.0613795,125.5,3.81,-0.026,0.016,0.979,0,0.58,0.60,-2.67
907,71.400,53.3107677,-0.0613784,125.5,3.34,-0.004,0.017,0.982,0,0.85,0.11,-3.95
908,71.480,53.3107686,-0.0613771,125.5,3.58,0.000,0.022,0.985,0,1.67,-0.38,-5.31
909,71.560,53.3107695,-0.0613757,125.6,3.65,0.002,0.025,0.993,0,2.26,-0.76,-6.59
910,71.640,53.3107705,-0.0613747,125.5,3.89,0.006,0.016,1.003,0,2.00,-1.14,-7.20
911,71.720,53.3107714,-0.0613735,125.5,3.45,0.002,0.000,0.999,0,1.45,-1.20,-6.90
912,71.800,53.3107723,-0.0613721,125.5,3.58,-0.008,-0.009,0.988,0,1.22,-0.92,-6.03
913,71.880,53.3107732,-0.0613708,125.5,3.68,0.000,-0.017,1.001,0,1.05,-0.90,-5.25
914,71.960,53.3107742,-0.0613696,125.5,3.78,0.000,-0.022,0.993,0,1.08,-1.01,-4.60
915,72.040,53.3107751,-0.0613684,125.5,3.56,0.004,-0.021,0.994,0,1.60,-1.35,-4.04
916,72.120,53.3107760,-0.0613672,125.5,3.57,0.009,-0.014,1.004,0,2.48,-1.44,-3.84
917,72.200,53.3107769,-0.0613660,125.5,3.38,0.021,-0.011,1.018,0,3.18,-1.57,-3.71
918,72.280,53.3107776,-0.0613648,125.5,3.36,0.018,-0.015,1.007,0,3.19,-1.47,-3.09
919,72.360,53.3107786,-0.0613636,125.5,3.30,0.017,-0.023,1.000,0,2.55,-0.90,-1.49
920,72.440,53.3107794,-0.0613626,125.6,3.30,0.024,-0.024,1.012,0,1.92,0.37,0.49
921,72.480,53.3107800,-0.0613619,125.6,3.68,0.009,-0.027,0.993,0,0.97,1.18,2.29
922,72.560,53.3107810,-0.0613608,125.6,3.65,0.004,-0.019,0.993,0,0.33,1.77,3.59
923,72.640,53.3107818,-0.0613598,125.6,3.36,0.007,-0.012,0.996,0,0.34,2.15,4.26
924,72.720,53.3107828,-0.0613586,125.6,3.64,0.007,-0.007,0.996,0,0.67,2.05,4.20
925,72.800,53.3107838,-0.0613578,125.6,3.43,0.001,-0.005,0.987,0,0.81,1.60,3.94
926,72.880,53.3107848,-0.0613569,125.6,3.36,0.007,-0.006,0.996,0,0.82,1.20,4.02
927,72.960,53.3107859,-0.0613561,125.6,3.41,0.008,-0.014,0.998,0,0.56,0.93,4.68
928,73.040,53.3107868,-0.0613551,125.6,3.18,0.001,-0.017,1.000,0,0.13,1.00,5.51
929,73.120,53.3107878,-0.0613545,125.6,3.13,-0.001,-0.015,0.999,0,-0.09,0.59,6.42
930,73.200,53.3107887,-0.0613535,125.7,3.22,-0.007,-0.017,0.990,0,-0.34,-0.02,7.08
931,73.280,53.3107897,-0.0613525,125.7,3.35,-0.006,-0.015,0.990,0,-0.46,-0.40,7.49
932,73.360,53.3107906,-0.0613518,125.7,3.34,-0.008,-0.012,0.991,0,-0.42,-0.59,7.68
933,73.440,53.3107917,-0.0613509,125.7,3.04,-0.002,-0.015,0.998,0,-0.40,-0.92,7.92
934,73.520,53.3107926,-0.0613501,125.8,2.82,-0.002,-0.014,0.997,0,-0.19,-0.81,8.15
935,73.600,53.3107935,-0.0613496,125.7,3.14,0.004,-0.007,0.998,0,-0.06,-0.74,8.26
936,73.680,53.3107945,-0.0613490,125.8,2.80,0.000,-0.007,0.990,0,0.03,-0.42,8.34
937,73.760,53.3107954,-0.0613482,125.8,3.01,0.011,-0.012,1.000,0,-0.06,-0.45,8.57
938,73.840,53.3107964,-0.0613475,125.8,3.04,0.017,-0.013,1.005,0,-0.40,-0.70,8.82
939,73.920,53.3107972,-0.0613470,125.8,2.84,0.013,-0.014,0.999,0,-1.07,-0.59,9.19
940,74.000,53.3107984,-0.0613465,125.8,3.17,0.004,-0.015,0.992,0,-1.83,-0.38,9.70
941,74.080,53.3107992,-0.0613458,125.8,2.72,0.008,-0.009,0.996,0,-2.52,-0.58,9.96
942,74.200,53.3108007,-0.0613453,125.9,3.03,0.000,0.002,0.984,0,-2.79,-0.51,9.59
943,74.280,53.3108014,-0.0613444,125.9,2.70,-0.001,0.012,0.990,0,-2.74,-0.24,8.51
944,74.360,53.3108022,-0.0613438,125.9,2.78,0.002,0.017,1.007,0,-2.37,-0.10,6.81
945,74.440,53.3108031,-0.0613431,125.9,2.90,0.003,0.021,1.010,0,-1.63,-0.03,4.68
946,74.520,53.3108040,-0.0613422,125.9,3.05,0.003,0.022,1.006,0,-0.78,0.05,2.47
947,74.600,53.3108048,-0.0613414,125.9,2.89,-0.004,0.021,0.997,0,0.02,0.17,0.37
948,74.680,53.3108057,-0.0613405,126.0,2.88,-0.006,0.021,0.990,0,0.76,0.06,-1.41
949,74.760,53.3108064,-0.0613399,126.0,2.32,-0.007,0.020,0.984,0,1.21,-0.27,-2.94
950,74.840,53.3108072,-0.0613390,126.0,2.74,-0.002,0.014,0.988,0,1.23,-0.55,-4.01
951,74.920,53.3108081,-0.0613382,126.0,3.12,-0.001,0.008,0.989,0,1.20,-0.47,-4.52
952,75.000,53.3108087,-0.0613376,125.9,2.49,0.000,0.002,0.989,0,0.86,-0.42,-4.61
953,75.080,53.3108095,-0.0613368,126.0,2.39,0.000,0.000,0.987,0,0.44,-0.48,-4.40
954,75.200,53.3108106,-0.0613359,125.9,2.70,-0.006,0.000,0.980,0,0.06,-0.21,-4.10
955,75.280,53.3108114,-0.0613350,125.9,2.63,-0.009,-0.002,0.980,0,-0.10,0.19,-3.82
956,75.360,53.3108122,-0.0613344,125.9,2.79,-0.001,-0.003,0.993,0,-0.24,0.26,-3.80
957,75.400,53.3108126,-0.0613341,125.9,2.79,-0.002,-0.002,0.991,0,0.01,0.44,-4.02
958,75.480,53.3108133,-0.0613333,125.9,2.44,0.003,-0.002,0.998,0,0.48,0.54,-4.62
959,75.560,53.3108140,-0.0613326,125.9,2.56,0.016,-0.002,1.004,0,1.09,0.17,-5.28
960,75.640,53.3108147,-0.0613319,125.9,2.52,0.027,0.000,1.003,0,1.40,-0.38,-5.88
961,75.720,53.3108153,-0.0613312,125.9,2.16,0.026,0.001,0.993,0,1.58,-0.53,-6.18
962,75.800,53.3108160,-0.0613306,125.9,2.56,0.039,-0.001,1.006,0,1.35,-0.62,-6.20
963,75.880,53.3108166,-0.0613298,125.9,2.10,0.039,-0.006,1.004,0,0.73,-0.49,-5.82
964,75.960,53.3108171,-0.0613293,125.9,2.11,0.040,-0.009,1.009,0,-0.41,-0.42,-4.94
965,76.040,53.3108177,-0.0613286,125.9,2.22,0.025,-0.011,0.995,0,-1.54,-0.12,-3.96
966,76.120,53.3108185,-0.0613278,125.9,2.47,0.023,-0.018,0.994,0,-2.79,-0.11,-2.93
967,76.240,53.3108194,-0.0613266,125.8,2.63,0.014,-0.015,0.979,0,-4.07,0.05,-1.93
968,76.320,53.3108199,-0.0613259,125.9,1.54,0.021,-0.012,0.982,0,-5.62,0.03,-1.05
969,76.360,53.3108201,-0.0613255,125.9,1.66,0.032,-0.018,0.987,0,-6.98,-0.04,-0.65
970,76.400,53.3108203,-0.0613251,126.0,1.98,0.051,-0.037,0.997,0,-7.91,-0.28,-0.58
971,76.480,53.3108208,-0.0613245,126.0,1.66,0.071,-0.070,1.000,0,-7.89,-0.62,-0.73
972,76.560,53.3108213,-0.0613240,126.0,1.64,0.085,-0.101,1.002,0,-6.62,-1.00,-0.81
973,76.640,53.3108216,-0.0613238,126.0,0.87,0.094,-0.127,1.002,0,-4.50,-1.31,-0.93
974,76.720,53.3108219,-0.0613237,126.0,1.09,0.098,-0.142,1.003,0,-1.78,-1.33,-0.96
975,76.800,53.3108221,-0.0613235,126.0,0.95,0.095,-0.143,0.999,0,1.08,-1.21,-0.90
976,76.840,53.3108223,-0.0613233,126.1,0.67,0.084,-0.131,0.993,0,3.53,-0.95,-0.84
977,76.920,53.3108225,-0.0613234,126.1,0.73,0.084,-0.115,0.996,0,5.33,-0.80,-0.81
978,77.000,53.3108227,-0.0613234,126.1,0.69,0.076,-0.095,0.987,0,6.67,-0.51,-0.70
979,77.080,53.3108229,-0.0613235,126.1,0.23,0.078,-0.069,0.981,0,7.30,-0.45,-0.50
980,77.160,53.3108230,-0.0613235,126.1,0.31,0.078,-0.038,0.981,0,7.21,-0.41,-0.31
981,77.240,53.3108231,-0.0613235,126.1,0.23,0.086,-0.007,0.993,0,6.12,-0.51,-0.15
982,77.320,53.3108231,-0.0613236,126.1,0.17,0.077,0.011,0.996,0,4.51,-0.30,-0.06
983,77.400,53.3108231,-0.0613236,126.1,0.16,0.064,0.018,1.005,0,2.50,-0.07,-0.03
984,77.480,53.3108231,-0.0613237,126.1,0.11,0.039,0.013,1.003,0,0.73,0.31,-0.13
985,77.560,53.3108231,-0.0613236,126.1,0.13,0.017,-0.001,1.000,0,-0.50,0.58,-0.19
986,77.640,53.3108231,-0.0613237,126.1,0.11,-0.009,-0.018,0.989,0,-1.02,0.67,-0.19
987,77.720,53.3108232,-0.0613237,126.1,0.11,-0.026,-0.029,0.983,0,-0.93,0.55,-0.17
988,77.800,53.3108232,-0.0613236,126.1,0.19,-0.025,-0.036,0.986,0,-0.42,0.28,-0.15
989,77.880,53.3108233,-0.0613237,126.1,0.16,-0.021,-0.037,0.990,0,0.11,-0.02,-0.07
990,77.960,53.3108234,-0.0613237,126.1,0.17,-0.022,-0.031,0.987,0,0.64,-0.13,-0.03
991,78.040,53.3108235,-0.0613237,126.1,0.03,-0.016,-0.025,0.990,0,1.02,-0.15,-0.02
992,78.120,53.3108236,-0.0613237,126.2,0.02,-0.011,-0.021,0.992,0,1.07,-0.18,-0.05
993,78.240,53.3108237,-0.0613236,126.2,0.13,-0.005,-0.020,0.993,0,0.96,-0.27,-0.07
994,78.320,53.3108238,-0.0613236,126.2,0.11,-0.006,-0.021,0.991,0,0.90,-0.24,-0.12
995,78.400,53.3108238,-0.0613236,126.2,0.14,0.000,-0.022,0.997,0,0.76,-0.38,-0.16
996,78.480,53.3108239,-0.0613234,126.2,0.21,0.002,-0.020,1.003,0,0.60,-0.52,-0.17
997,78.560,53.3108239,-0.0613234,126.2,0.05,-0.002,-0.015,1.000,0,0.42,-0.51,-0.19
998,78.640,53.3108239,-0.0613233,126.2,0.06,-0.005,-0.010,0.999,0,0.01,-0.49,-0.17
999,78.720,53.3108239,-0.0613232,126.2,0.04,-0.010,-0.010,0.994,0,-0.40,-0.35,-0.16
1000,78.800,53.3108240,-0.0613232,126.2,0.04,-0.012,-0.016,0.990,0,-0.67,-0.17,-0.13
1001,78.880,53.3108240,-0.0613231,126.2,0.12,-0.019,-0.029,0.980,0,-0.56,-0.01,-0.17
1002,78.960,53.3108240,-0.0613231,126.2,0.10,-0.015,-0.043,0.982,0,0.06,0.00,-0.17
1003,79.040,53.3108241,-0.0613231,126.2,0.20,-0.022,-0.044,0.975,0,1.17,0.07,-0.16
1004,79.120,53.3108241,-0.0613231,126.3,0.10,-0.012,-0.024,0.986,0,1.58,-0.09,-0.07
1005,79.240,53.3108243,-0.0613231,126.3,0.21,-0.007,-0.002,0.991,0,1.08,-0.22,-0.02
1006,79.320,53.3108243,-0.0613229,126.3,0.09,0.003,0.014,1.000,0,-0.36,-0.32,0.03
1007,79.400,53.3108243,-0.0613228,126.4,0.25,-0.001,0.020,0.997,0,-2.33,-0.22,0.00
1008,79.480,53.3108243,-0.0613227,126.4,0.24,0.001,0.006,1.003,0,-4.36,-0.24,-0.02
1009,79.560,53.3108243,-0.0613226,126.4,0.19,-0.009,-0.025,0.993,0,-5.34,-0.03,-0.10
1010,79.640,53.3108243,-0.0613224,126.4,0.27,-0.013,-0.058,0.990,0,-5.15,0.05,-0.18
1011,79.720,53.3108243,-0.0613224,126.4,0.19,-0.017,-0.080,0.985,0,-3.83,0.14,-0.19
1012,79.800,53.3108244,-0.0613224,126.4,0.16,-0.009,-0.087,0.992,0,-2.23,-0.03,-0.14
1013,79.880,53.3108245,-0.0613222,126.5,0.06,-0.006,-0.080,0.995,0,-0.76,-0.12,-0.12
1014,79.960,53.3108245,-0.0613222,126.5,0.21,0.000,-0.069,1.001,0,0.04,-0.32,-0.14
1015,80.040,53.3108245,-0.0613221,126.5,0.04,0.004,-0.060,1.007,0,0.36,-0.42,-0.12
1016,80.120,53.3108245,-0.0613221,126.5,0.10,0.006,-0.062,1.012,0,0.54,-0.54,-0.14
1017,80.200,53.3108245,-0.0613221,126.6,0.16,0.001,-0.071,1.009,0,0.93,-0.58,-0.17
1018,80.280,53.3108246,-0.0613222,126.6,0.28,0.000,-0.082,1.012,0,1.81,-0.70,-0.20
1019,80.360,53.3108248,-0.0613222,126.6,0.13,-0.004,-0.090,1.008,0,3.47,-0.73,-0.18
1020,80.440,53.3108248,-0.0613222,126.6,0.22,-0.012,-0.083,0.997,0,5.48,-0.73,-0.17
1021,80.520,53.3108249,-0.0613223,126.7,0.28,-0.011,-0.060,0.994,0,7.07,-0.80,-0.13
1022,80.600,53.3108250,-0.0613223,126.7,0.24,-0.013,-0.030,0.986,0,8.03,-0.74,-0.12
1023,80.680,53.3108250,-0.0613223,126.7,0.24,-0.010,0.001,0.984,0,8.06,-0.68,-0.06
1024,80.760,53.3108251,-0.0613224,126.8,0.10,0.003,0.028,0.993,0,6.95,-0.77,-0.02
1025,80.840,53.3108251,-0.0613223,126.8,0.08,0.009,0.039,0.996,0,5.42,-0.63,-0.04
1026,80.920,53.3108251,-0.0613223,126.8,0.24,0.012,0.035,0.999,0,4.00,-0.57,-0.09
1027,81.000,53.3108251,-0.0613224,126.8,0.08,0.009,0.025,0.999,0,3.20,-0.50,-0.14
1028,81.080,53.3108251,-0.0613224,126.8,0.13,0.002,0.019,0.997,0,3.00,-0.57,-0.18
1029,81.160,53.3108251,-0.0613224,126.8,0.34,-0.008,0.018,0.987,0,3.26,-0.52,-0.20
1030,81.240,53.3108251,-0.0613224,126.8,0.17,-0.001,0.031,0.994,0,3.41,-0.70,-0.12
1031,81.280,53.3108251,-0.0613224,126.8,0.09,0.002,0.049,0.996,0,3.24,-0.73,-0.05
1032,81.360,53.3108251,-0.0613224,126.9,0.02,0.002,0.068,0.993,0,2.17,-0.57,-0.01
1033,81.440,53.3108251,-0.0613224,126.9,0.10,0.004,0.079,0.992,0,0.56,-0.27,0.00
1034,81.520,53.3108251,-0.0613224,126.9,0.05,0.012,0.079,1.000,0,-1.36,-0.17,0.04
1035,81.600,53.3108250,-0.0613221,126.9,0.28,0.009,0.067,0.999,0,-3.18,0.07,0.00
1036,81.680,53.3108250,-0.0613221,126.9,0.13,0.009,0.046,1.002,0,-4.73,0.16,-0.06
1037,81.760,53.3108250,-0.0613219,126.9,0.24,0.008,0.020,1.002,0,-5.38,0.20,-0.09
1038,81.840,53.3108249,-0.0613219,126.9,0.15,0.011,-0.005,1.005,0,-5.29,0.13,-0.13
1039,81.920,53.3108248,-0.0613219,127.0,0.14,-0.001,-0.025,0.997,0,-4.43,0.31,-0.20
1040,82.000,53.3108247,-0.0613219,127.0,0.19,-0.002,-0.035,0.999,0,-3.19,0.15,-0.20
1041,82.080,53.3108247,-0.0613218,127.0,0.12,-0.013,-0.030,0.989,0,-1.66,0.18,-0.14
1042,82.200,53.3108248,-0.0613216,127.0,0.24,-0.017,-0.021,0.990,0,-0.77,-0.01,-0.17
1043,82.280,53.3108248,-0.0613216,127.0,0.12,-0.025,-0.014,0.983,0,-0.16,0.02,-0.23
1044,82.360,53.3108249,-0.0613214,127.0,0.38,-0.013,-0.006,0.987,0,-0.16,-0.10,-0.19
1045,82.440,53.3108249,-0.0613214,127.0,0.13,-0.014,-0.001,0.981,0,-0.48,0.00,-0.19
1046,82.520,53.3108248,-0.0613213,127.0,0.24,-0.005,-0.010,0.993,0,-0.99,-0.12,-0.23
1047,82.600,53.3108248,-0.0613214,127.1,0.16,-0.002,-0.021,0.997,0,-1.03,-0.17,-0.21
1048,82.680,53.3108248,-0.0613214,127.1,0.23,-0.004,-0.025,0.996,0,-0.74,-0.23,-0.17
1049,82.760,53.3108248,-0.0613214,127.1,0.09,-0.004,-0.028,1.002,0,-0.31,-0.40,-0.18
1050,82.840,53.3108247,-0.0613213,127.1,0.27,-0.003,-0.028,1.005,0,0.42,-0.43,-0.10
1051,82.920,53.3108248,-0.0613212,127.1,0.19,0.001,-0.022,1.007,0,0.93,-0.48,-0.03
1052,83.000,53.3108248,-0.0613214,127.1,0.29,0.001,-0.013,1.005,0,1.27,-0.38,-0.04
1053,83.080,53.3108248,-0.0613213,127.1,0.13,0.008,-0.008,1.011,0,1.02,-0.50,-0.07
1054,83.200,53.3108248,-0.0613212,127.1,0.15,-0.003,-0.004,1.000,0,0.89,-0.25,-0.08
1055,83.280,53.3108248,-0.0613212,127.1,0.04,-0.015,-0.003,0.995,0,0.39,-0.19,-0.16
1056,83.360,53.3108249,-0.0613211,127.1,0.30,-0.024,-0.003,0.989,0,0.01,-0.06,-0.18
1057,83.440,53.3108249,-0.0613211,127.1,0.18,-0.027,-0.005,0.985,0,-0.27,0.07,-0.18
1058,83.520,53.3108249,-0.0613208,127.2,0.41,-0.028,-0.009,0.985,0,-0.31,0.16,-0.15
1059,83.600,53.3108249,-0.0613209,127.2,0.19,-0.020,-0.015,0.992,0,-0.32,0.05,-0.14
1060,83.680,53.3108250,-0.0613208,127.2,0.33,-0.015,-0.017,0.993,0,-0.04,0.02,-0.11
1061,83.760,53.3108250,-0.0613207,127.2,0.17,-0.013,-0.017,0.993,0,0.19,-0.02,-0.14
1062,83.840,53.3108250,-0.0613207,127.2,0.06,-0.015,-0.017,0.995,0,0.47,-0.03,-0.11
1063,83.920,53.3108250,-0.0613207,127.2,0.31,-0.022,-0.017,0.993,0,0.72,-0.04,-0.11
1064,84.000,53.3108251,-0.0613207,127.2,0.26,-0.029,-0.015,0.989,0,1.14,0.05,-0.12
1065,84.080,53.3108251,-0.0613206,127.2,0.41,-0.029,-0.011,1.001,0,1.31,-0.09,-0.10
1066,84.200,53.3108252,-0.0613206,127.2,0.26,-0.033,-0.008,1.008,0,1.41,-0.21,-0.15
1067,84.280,53.3108254,-0.0613206,127.2,0.47,-0.030,-0.003,1.014,0,1.51,-0.44,-0.18
1068,84.360,53.3108255,-0.0613204,127.2,0.45,-0.029,0.003,1.015,0,1.43,-0.63,-0.24
1069,84.440,53.3108258,-0.0613204,127.2,0.54,-0.030,0.008,1.015,0,1.19,-0.74,-0.30
1070,84.520,53.3108259,-0.0613204,127.2,0.61,-0.037,0.008,1.003,0,1.04,-0.62,-0.40
1071,84.600,53.3108260,-0.0613201,127.2,0.77,-0.032,0.008,1.000,0,1.00,-0.57,-0.40
1072,84.679,53.3108261,-0.0613199,127.3,0.59,-0.036,0.010,1.000,0,0.79,-0.54,-0.44
1073,84.719,53.3108264,-0.0613197,127.3,0.65,-0.040,0.014,1.003,0,0.59,-0.52,-0.46
1074,84.799,53.3108265,-0.0613197,127.3,0.86,-0.054,0.017,0.997,0,0.24,-0.37,-0.46
1075,84.879,53.3108269,-0.0613195,127.3,0.91,-0.060,0.018,1.004,0,-0.29,-0.25,-0.44
1076,84.959,53.3108271,-0.0613192,127.3,1.29,-0.077,0.018,0.996,0,-0.74,0.03,-0.43
1077,85.039,53.3108276,-0.0613187,127.3,1.60,-0.084,0.015,0.995,0,-1.24,0.11,-0.50
1078,85.119,53.3108278,-0.0613185,127.3,0.81,-0.083,0.011,0.997,0,-1.55,0.27,-0.47
1079,85.240,53.3108284,-0.0613178,127.3,1.85,-0.082,0.004,1.006,0,-1.86,0.28,-0.56
1080,85.320,53.3108288,-0.0613175,127.3,1.31,-0.087,-0.006,1.004,0,-1.92,0.16,-0.63
1081,85.400,53.3108295,-0.0613171,127.3,2.21,-0.084,-0.016,1.006,0,-1.68,-0.12,-0.71
1082,85.480,53.3108300,-0.0613165,127.3,2.10,-0.090,-0.025,1.003,0,-1.01,-0.19,-0.83
1083,85.560,53.3108306,-0.0613161,127.3,1.91,-0.104,-0.030,0.994,0,-0.02,-0.25,-0.94
1084,85.640,53.3108314,-0.0613153,127.3,2.98,-0.107,-0.027,0.990,0,1.04,-0.26,-0.97
1085,85.680,53.3108318,-0.0613149,127.3,2.64,-0.110,-0.014,0.991,0,1.80,-0.16,-1.02
1086,85.760,53.3108324,-0.0613143,127.3,2.68,-0.117,-0.004,0.996,0,2.03,0.05,-1.02
1087,85.840,53.3108334,-0.0613134,127.3,3.51,-0.123,-0.001,0.997,0,2.10,0.21,-0.94
1088,85.920,53.3108343,-0.0613124,127.3,3.20,-0.130,0.001,1.001,0,1.90,0.14,-0.85
1089,86.000,53.3108351,-0.0613114,127.4,3.42,-0.140,0.008,0.998,0,1.74,0.15,-0.68
1090,86.080,53.3108360,-0.0613104,127.4,3.70,-0.141,0.001,1.003,0,1.20,0.18,-0.33
1091,86.160,53.3108370,-0.0613093,127.4,3.85,-0.137,-0.007,1.005,0,0.83,0.14,0.21
1092,86.240,53.3108383,-0.0613084,127.4,4.45,-0.136,-0.007,1.004,0,0.58,0.05,0.77
1093,86.320,53.3108395,-0.0613070,127.4,4.70,-0.137,0.000,1.003,0,0.45,0.06,1.03
1094,86.400,53.3108407,-0.0613058,127.4,4.57,-0.145,0.002,1.003,0,0.54,0.18,0.80
1095,86.480,53.3108420,-0.0613044,127.3,4.80,-0.160,0.009,1.003,0,1.25,0.19,0.00
1096,86.560,53.3108435,-0.0613031,127.4,5.56,-0.168,0.039,1.005,0,1.59,0.19,-0.63
1097,86.640,53.3108449,-0.0613014,127.4,5.29,-0.163,0.072,0.996,0,0.27,0.58,-1.06
1098,86.680,53.3108457,-0.0613004,127.4,5.68,-0.161,0.083,0.986,0,-1.69,1.12,-1.41
1099,86.760,53.3108472,-0.0612985,127.4,5.98,-0.162,0.077,0.993,0,-3.61,1.22,-2.00
1100,86.840,53.3108489,-0.0612967,127.4,6.08,-0.162,0.072,0.996,0,-5.14,1.21,-2.65
1101,86.920,53.3108504,-0.0612945,127.3,6.52,-0.176,0.050,0.990,0,-6.14,1.10,-3.32
1102,87.000,53.3108522,-0.0612924,127.3,6.93,-0.203,0.027,0.998,0,-6.24,0.93,-3.72
1103,87.080,53.3108541,-0.0612901,127.3,7.48,-0.217,0.002,0.991,0,-6.16,0.57,-4.17
1104,87.160,53.3108559,-0.0612876,127.3,7.52,-0.204,-0.017,0.978,0,-5.34,0.09,-4.38
1105,87.240,53.3108579,-0.0612852,127.3,7.82,-0.193,-0.027,0.965,0,-3.92,-0.41,-4.86
1106,87.320,53.3108600,-0.0612826,127.3,8.14,-0.184,-0.026,0.973,0,-2.94,-0.79,-5.48
1107,87.400,53.3108621,-0.0612800,127.3,8.32,-0.179,-0.020,0.971,0,-2.53,-1.46,-5.95
1108,87.480,53.3108643,-0.0612771,127.3,8.70,-0.167,-0.002,0.989,0,-2.59,-1.48,-6.10
1109,87.560,53.3108665,-0.0612741,127.3,9.05,-0.165,0.015,0.996,0,-3.28,-0.98,-6.34
1110,87.640,53.3108687,-0.0612710,127.3,9.09,-0.164,0.021,1.004,0,-4.30,0.11,-6.49
1111,87.680,53.3108699,-0.0612694,127.3,9.52,-0.157,0.025,1.002,0,-4.87,1.28,-6.90
1112,87.760,53.3108723,-0.0612661,127.2,9.74,-0.131,0.028,0.993,0,-4.61,2.42,-8.05
1113,87.840,53.3108745,-0.0612626,127.2,9.43,-0.098,0.017,0.995,0,-3.89,2.97,-9.72
1114,87.920,53.3108766,-0.0612591,127.2,9.54,-0.077,0.008,0.995,0,-3.26,2.95,-11.09
1115,88.000,53.3108788,-0.0612555,127.2,9.44,-0.054,0.003,0.978,0,-2.56,2.44,-12.10
1116,88.080,53.3108809,-0.0612520,127.2,9.52,-0.020,-0.005,0.981,0,-1.88,1.64,-12.88
1117,88.160,53.3108829,-0.0612483,127.2,9.35,0.007,-0.017,1.024,0,-1.36,1.09,-13.45
1118,88.240,53.3108847,-0.0612446,127.2,9.20,0.005,-0.012,1.011,0,-0.28,1.06,-13.97
1119,88.320,53.3108866,-0.0612407,127.1,9.46,0.019,-0.004,1.004,0,1.46,0.95,-15.20
1120,88.400,53.3108884,-0.0612370,127.1,8.97,0.028,-0.002,1.023,0,3.73,1.55,-16.79
1121,88.480,53.3108901,-0.0612333,127.1,8.87,0.021,-0.008,1.026,0,5.85,1.98,-18.05
1122,88.560,53.3108917,-0.0612294,127.1,9.17,0.005,-0.020,0.997,0,7.68,1.72,-18.26
1123,88.640,53.3108934,-0.0612254,127.1,9.09,0.006,-0.034,0.986,0,8.84,1.00,-17.19
1124,88.720,53.3108951,-0.0612215,127.1,8.95,0.000,-0.045,0.989,0,9.06,0.37,-15.15
1125,88.800,53.3108969,-0.0612176,127.1,8.99,0.000,-0.054,0.977,0,8.26,-0.71,-12.29
1126,88.880,53.3108984,-0.0612135,127.1,8.97,0.010,-0.058,0.977,0,6.75,-1.57,-8.85
1127,88.960,53.3109002,-0.0612098,127.1,8.71,0.019,-0.054,0.981,0,4.34,-1.92,-5.40
1128,89.040,53.3109018,-0.0612058,127.1,9.04,0.026,-0.045,0.990,0,1.73,-1.83,-2.49
1129,89.120,53.3109036,-0.0612019,127.0,8.91,0.026,-0.025,0.986,0,-0.15,-1.62,-1.16
1130,89.200,53.3109053,-0.0611981,127.0,8.70,0.027,-0.001,0.992,0,-1.11,-1.44,-1.26
1131,89.280,53.3109066,-0.0611944,127.0,8.21,0.019,0.014,0.989,0,-0.68,-1.17,-3.13
1132,89.360,53.3109082,-0.0611905,126.9,8.57,0.003,0.021,0.990,0,0.59,-0.99,-5.49
1133,89.440,53.3109098,-0.0611864,126.9,9.04,-0.028,0.016,0.988,0,1.76,-0.93,-7.29
1134,89.520,53.3109115,-0.0611826,126.9,8.77,-0.040,0.002,0.990,0,2.05,-1.05,-7.60
1135,89.600,53.3109130,-0.0611783,126.9,8.95,-0.048,-0.008,0.989,0,1.76,-1.29,-7.04
1136,89.680,53.3109144,-0.0611740,126.9,9.17,-0.055,-0.016,0.992,0,0.84,-1.59,-5.62
1137,89.760,53.3109160,-0.0611695,126.9,9.55,-0.053,-0.014,0.995,0,-0.06,-1.67,-4.24
1138,89.840,53.3109176,-0.0611653,126.8,9.18,-0.042,-0.011,0.996,0,-0.79,-1.57,-3.39
1139,89.920,53.3109192,-0.0611608,126.8,9.67,-0.044,-0.008,1.002,0,-1.29,-1.06,-2.95
1140,90.000,53.3109209,-0.0611564,126.8,9.68,-0.064,-0.005,0.997,0,-1.89,-0.13,-2.72
1141,90.080,53.3109225,-0.0611521,126.8,9.39,-0.093,0.002,0.973,0,-2.85,-0.13,-2.71
1142,90.160,53.3109243,-0.0611477,126.7,10.32,-0.127,0.007,0.946,0,-4.10,-0.93,-2.79
1143,90.240,53.3109262,-0.0611429,126.6,10.52,-0.149,0.013,0.949,0,-5.48,-1.62,-2.90
1144,90.320,53.3109280,-0.0611378,126.6,10.96,-0.169,0.018,0.951,0,-6.99,-2.44,-3.17
1145,90.400,53.3109298,-0.0611325,126.6,11.59,-0.155,0.016,0.974,0,-8.54,-2.82,-3.65
1146,90.480,53.3109317,-0.0611272,126.6,11.26,-0.145,0.016,0.992,0,-9.75,-1.72,-4.61
1147,90.560,53.3109337,-0.0611215,126.6,12.17,-0.133,0.019,1.024,0,-10.09,0.46,-6.23
1148,90.600,53.3109340,-0.0611185,126.5,11.78,-0.117,0.025,1.045,0,-9.66,2.37,-8.38
1149,90.680,53.3109358,-0.0611124,126.5,12.41,-0.107,0.027,1.053,0,-7.85,4.17,-11.25
1150,90.760,53.3109375,-0.0611062,126.5,12.73,-0.118,0.024,1.044,0,-4.38,5.63,-14.23
1151,90.840,53.3109391,-0.0610998,126.4,12.86,-0.124,0.017,1.040,0,-0.12,6.32,-16.65
1152,90.920,53.3109405,-0.0610934,126.4,12.84,-0.139,0.010,1.061,0,4.48,6.54,-18.44
1153,91.000,53.3109419,-0.0610867,126.4,12.83,-0.147,-0.002,1.050,0,9.42,6.23,-19.41
1154,91.080,53.3109433,-0.0610797,126.4,13.44,-0.177,-0.013,1.022,0,14.11,6.12,-18.72
1155,91.160,53.3109448,-0.0610730,126.3,13.45,-0.196,-0.021,0.996,0,16.84,4.25,-17.00
1156,91.240,53.3109464,-0.0610660,126.3,14.06,-0.197,-0.026,0.928,0,18.43,-0.04,-14.17
1157,91.320,53.3109481,-0.0610586,126.2,14.69,-0.218,-0.026,0.849,0,19.05,-5.51,-10.58
1158,91.400,53.3109498,-0.0610510,126.2,15.50,-0.205,-0.019,0.848,0,18.94,-9.19,-6.70
1159,91.480,53.3109516,-0.0610435,126.1,14.83,-0.175,-0.008,0.877,0,18.81,-10.30,-3.27
1160,91.560,53.3109532,-0.0610359,126.0,15.17,-0.179,-0.001,0.842,0,19.20,-9.11,-0.55
1161,91.640,53.3109552,-0.0610281,126.0,15.89,-0.168,0.003,0.899,0,19.51,-6.03,1.26
1162,91.720,53.3109570,-0.0610200,126.0,16.28,-0.128,0.002,0.962,0,19.55,-2.54,3.37
1163,91.800,53.3109592,-0.0610122,126.0,15.78,-0.130,0.000,0.979,0,18.15,-0.46,5.58
1164,91.880,53.3109613,-0.0610040,125.9,16.86,-0.146,0.006,0.984,0,15.69,0.08,8.27
1165,91.960,53.3109635,-0.0609956,125.8,17.26,-0.132,0.018,1.021,0,12.33,0.00,11.04
1166,92.040,53.3109660,-0.0609871,125.8,17.53,-0.128,0.025,1.036,0,8.79,-0.09,13.16
1167,92.120,53.3109686,-0.0609786,125.7,17.96,-0.139,0.040,1.024,0,4.76,1.11,14.70
1168,92.240,53.3109726,-0.0609657,125.7,18.25,-0.138,0.053,1.018,0,0.43,1.85,15.31
1169,92.320,53.3109756,-0.0609570,125.6,18.79,-0.112,0.058,1.011,0,-3.66,1.50,14.95
1170,92.400,53.3109783,-0.0609481,125.5,18.75,-0.058,0.057,0.991,0,-7.06,0.10,13.66
1171,92.480,53.3109811,-0.0609394,125.4,18.81,0.020,0.061,0.971,0,-9.59,-0.83,12.24
1172,92.560,53.3109838,-0.0609309,125.3,17.93,0.049,0.061,0.960,0,-10.92,-1.51,10.02
1173,92.640,53.3109867,-0.0609224,125.3,18.01,0.087,0.055,0.959,0,-10.70,-2.38,7.55
1174,92.720,53.3109895,-0.0609140,125.2,18.09,0.133,0.041,0.975,0,-9.34,-2.58,5.20
1175,92.800,53.3109923,-0.0609058,125.1,17.79,0.133,0.034,0.977,0,-6.70,-1.23,3.37
1176,92.880,53.3109952,-0.0608974,125.1,17.63,0.104,0.017,0.976,0,-4.21,0.32,2.12
1177,92.960,53.3109981,-0.0608892,125.0,17.80,0.123,0.001,1.000,0,-2.55,0.61,1.93
1178,93.040,53.3110011,-0.0608815,124.9,17.43,0.117,-0.002,0.996,0,-1.13,0.18,2.46
1179,93.120,53.3110039,-0.0608732,124.9,17.79,0.112,0.001,0.989,0,-0.42,-0.70,3.12
1180,93.200,53.3110069,-0.0608651,124.9,17.53,0.113,-0.007,0.998,0,-0.05,-1.07,3.71
1181,93.280,53.3110100,-0.0608571,124.8,17.61,0.125,-0.008,1.041,0,0.46,-1.63,4.09
1182,93.360,53.3110130,-0.0608492,124.8,17.25,0.104,-0.001,1.030,0,1.77,-1.28,4.11
1183,93.440,53.3110162,-0.0608414,124.7,17.44,0.071,0.005,1.007,0,2.82,-0.11,3.99
1184,93.520,53.3110194,-0.0608337,124.6,17.86,0.042,0.008,0.993,0,3.47,0.44,3.81
1185,93.600,53.3110225,-0.0608258,124.5,17.59,0.034,0.016,0.991,0,3.89,0.04,3.97
1186,93.680,53.3110257,-0.0608180,124.5,17.54,0.031,0.019,0.973,0,4.00,1.31,4.59
1187,93.760,53.3110289,-0.0608101,124.5,17.51,0.030,0.016,1.003,0,3.50,2.47,5.21
1188,93.840,53.3110321,-0.0608021,124.4,17.86,0.000,0.029,1.058,0,2.83,2.33,5.43
1189,93.920,53.3110355,-0.0607944,124.4,17.93,-0.064,0.047,1.047,0,2.23,2.20,5.74
1190,94.000,53.3110391,-0.0607864,124.2,18.77,-0.115,0.064,1.025,0,1.44,2.56,5.99
1191,94.080,53.3110429,-0.0607782,124.2,19.19,-0.249,0.103,1.044,0,-0.45,2.68,6.06
1192,94.200,53.3110483,-0.0607654,124.1,19.60,-0.360,0.149,1.097,0,-2.30,4.84,6.09
1193,94.280,53.3110524,-0.0607565,124.1,20.70,-0.473,0.182,1.072,0,-3.15,8.06,5.73
1194,94.360,53.3110567,-0.0607473,124.0,21.62,-0.572,0.208,1.085,0,-3.84,8.04,4.15
1195,94.440,53.3110611,-0.0607374,124.0,22.67,-0.653,0.220,1.107,0,-3.80,6.39,1.93
1196,94.520,53.3110655,-0.0607270,123.9,23.85,-0.661,0.204,1.114,0,-1.24,5.00,-0.25
1197,94.600,53.3110702,-0.0607164,123.9,24.44,-0.663,0.176,1.045,0,3.45,3.64,-2.04
1198,94.680,53.3110749,-0.0607055,123.8,25.27,-0.646,0.159,1.048,0,7.60,1.90,-3.47
1199,94.760,53.3110800,-0.0606944,123.7,25.87,-0.609,0.148,1.076,0,11.58,0.79,-3.70
1200,94.840,53.3110852,-0.0606829,123.7,26.71,-0.584,0.132,1.042,0,16.10,-0.33,-2.57
1201,94.920,53.3110907,-0.0606713,123.7,27.53,-0.535,0.122,1.044,0,19.19,-1.95,-0.81
1202,95.000,53.3110966,-0.0606594,123.6,28.85,-0.478,0.119,1.134,0,20.33,-1.75,1.63
1203,95.080,53.3111028,-0.0606474,123.5,29.29,-0.437,0.123,1.210,0,19.19,1.64,5.49
1204,95.160,53.3111091,-0.0606354,123.5,29.75,-0.420,0.128,1.231,0,16.58,5.93,8.99
1205,95.240,53.3111157,-0.0606232,123.5,30.48,-0.394,0.133,1.311,0,11.03,9.86,11.21
1206,95.320,53.3111224,-0.0606108,123.5,30.91,-0.416,0.138,1.306,0,5.92,13.59,12.23
1207,95.400,53.3111295,-0.0605983,123.5,31.63,-0.442,0.146,1.193,0,1.49,12.75,11.24
1208,95.480,53.3111365,-0.0605854,123.5,32.54,-0.421,0.125,1.096,0,-1.09,7.72,8.69
1209,95.560,53.3111441,-0.0605726,123.5,33.37,-0.388,0.094,1.044,0,-1.23,2.84,6.68
1210,95.640,53.3111518,-0.0605598,123.5,33.76,-0.363,0.081,1.002,0,0.19,0.45,6.03
1211,95.720,53.3111596,-0.0605468,123.5,34.14,-0.347,0.077,0.990,0,0.08,-0.57,6.77
1212,95.800,53.3111676,-0.0605338,123.5,34.91,-0.317,0.075,1.033,0,-3.04,-0.62,8.54
1213,95.880,53.3111759,-0.0605205,123.5,35.48,-0.308,0.093,1.059,0,-7.70,1.83,10.76
1214,95.960,53.3111844,-0.0605072,123.5,36.19,-0.335,0.118,1.057,0,-14.52,5.59,12.03
1215,96.000,53.3111887,-0.0605007,123.5,36.36,-0.362,0.139,1.027,0,-21.95,7.20,11.84
1216,96.080,53.3111973,-0.0604867,123.5,37.19,-0.350,0.147,0.997,0,-29.21,6.05,9.49
1217,96.160,53.3112063,-0.0604732,123.5,37.57,-0.358,0.138,0.944,0,-33.38,5.15,6.30
1218,96.240,53.3112150,-0.0604592,123.5,37.86,-0.344,0.113,0.928,0,-34.41,3.66,2.48
1219,96.320,53.3112240,-0.0604448,123.5,38.46,-0.307,0.090,0.938,0,-32.95,1.61,-0.82
1220,96.400,53.3112331,-0.0604305,123.5,38.98,-0.289,0.057,0.940,0,-29.62,1.10,-2.93
1221,96.440,53.3112375,-0.0604231,123.5,38.95,-0.268,0.041,0.993,0,-25.76,1.40,-3.88
1222,96.480,53.3112422,-0.0604158,123.5,39.12,-0.264,0.037,1.024,0,-22.29,2.74,-3.99
1223,96.560,53.3112513,-0.0604008,123.5,39.80,-0.267,0.049,1.042,0,-21.35,3.27,-4.02
1224,96.640,53.3112604,-0.0603856,123.5,40.30,-0.261,0.050,1.033,0,-21.22,3.43,-4.20
1225,96.720,53.3112695,-0.0603702,123.5,40.22,-0.260,0.058,1.034,0,-19.88,2.88,-5.75
1226,96.800,53.3112785,-0.0603545,123.5,40.61,-0.260,0.047,0.988,0,-16.11,1.57,-8.02
1227,96.880,53.3112879,-0.0603390,123.5,41.30,-0.209,0.019,0.928,0,-10.15,-0.91,-9.47
1228,96.920,53.3112926,-0.0603311,123.4,41.43,-0.129,-0.006,0.901,0,-4.45,-3.76,-10.41
1229,96.960,53.3112971,-0.0603229,123.4,41.28,-0.073,-0.032,0.917,0,1.27,-5.29,-10.45
1230,97.040,53.3113060,-0.0603072,123.4,40.23,-0.019,-0.050,0.939,0,4.74,-6.17,-9.31
1231,97.120,53.3113150,-0.0602911,123.3,41.03,0.036,-0.046,0.954,0,6.45,-6.74,-7.08
1232,97.200,53.3113239,-0.0602751,123.3,40.96,0.048,-0.035,0.966,0,6.72,-6.56,-6.11
1233,97.280,53.3113329,-0.0602592,123.2,40.71,0.088,-0.021,0.975,0,8.47,-5.77,-5.52
1234,97.360,53.3113418,-0.0602433,123.1,40.54,0.116,0.000,0.983,0,9.63,-5.02,-5.78
1235,97.440,53.3113506,-0.0602275,123.0,40.19,0.134,0.012,0.990,0,12.03,-3.73,-6.55
1236,97.520,53.3113592,-0.0602118,122.9,39.46,0.140,0.012,1.001,0,15.46,-2.63,-7.45
1237,97.600,53.3113679,-0.0601961,122.9,39.86,0.149,0.008,1.017,0,20.57,-2.44,-7.60
1238,97.680,53.3113763,-0.0601804,122.8,39.46,0.123,0.001,1.010,0,25.00,-2.15,-6.33
1239,97.760,53.3113845,-0.0601646,122.8,39.06,0.116,0.009,1.004,0,27.08,-2.44,-3.61
1240,97.840,53.3113927,-0.0601490,122.7,38.42,0.107,0.020,0.990,0,25.94,-3.04,-0.60
1241,97.920,53.3114010,-0.0601337,122.5,38.86,0.102,0.004,0.994,0,23.79,-2.39,1.68
1242,97.960,53.3114052,-0.0601263,122.5,38.10,0.098,-0.020,1.004,0,20.63,-1.60,3.31
1243,98.040,53.3114133,-0.0601111,122.5,37.69,0.089,-0.053,1.014,0,18.77,-1.10,4.20
1244,98.120,53.3114215,-0.0600960,122.5,37.99,0.080,-0.079,1.033,0,20.07,-0.60,4.19
1245,98.200,53.3114298,-0.0600814,122.5,37.61,0.081,-0.107,1.042,0,23.90,-0.21,4.12
1246,98.280,53.3114383,-0.0600671,122.5,37.18,0.079,-0.113,1.071,0,28.54,0.06,4.60
1247,98.360,53.3114469,-0.0600531,122.5,37.21,0.068,-0.096,1.105,0,32.33,1.15,6.45
1248,98.440,53.3114560,-0.0600398,122.4,37.90,0.062,-0.061,1.138,0,33.75,2.69,8.95
1249,98.520,53.3114648,-0.0600263,122.5,36.91,0.052,-0.035,1.146,0,32.11,4.15,11.01
1250,98.600,53.3114737,-0.0600132,122.6,36.85,0.037,-0.004,1.177,0,29.29,5.24,12.72
1251,98.680,53.3114831,-0.0600008,122.5,37.59,0.013,0.017,1.194,0,25.18,5.95,13.99
1252,98.760,53.3114927,-0.0599885,122.5,37.50,0.009,0.027,1.201,0,20.27,6.75,14.93
1253,98.840,53.3115024,-0.0599767,122.5,37.32,-0.010,0.037,1.213,0,15.23,8.03,15.50
1254,98.920,53.3115122,-0.0599654,122.5,37.36,-0.046,0.052,1.219,0,11.77,9.44,16.22
1255,99.000,53.3115224,-0.0599540,122.5,37.88,-0.073,0.059,1.221,0,7.85,10.78,16.45
1256,99.080,53.3115327,-0.0599431,122.6,37.84,-0.111,0.065,1.189,0,4.97,11.35,16.33
1257,99.160,53.3115432,-0.0599329,122.6,37.94,-0.135,0.070,1.171,0,3.12,10.76,15.47
1258,99.240,53.3115541,-0.0599229,122.6,38.44,-0.147,0.066,1.163,0,2.56,9.44,14.43
1259,99.320,53.3115650,-0.0599131,122.6,38.54,-0.152,0.054,1.153,0,2.61,8.78,13.94
1260,99.400,53.3115761,-0.0599037,122.6,38.92,-0.172,0.053,1.123,0,3.33,8.63,14.14
1261,99.480,53.3115876,-0.0598948,122.6,39.69,-0.174,0.059,1.131,0,3.16,8.21,14.23
1262,99.560,53.3115992,-0.0598864,122.6,39.20,-0.193,0.061,1.126,0,3.27,8.41,14.68
1263,99.640,53.3116110,-0.0598781,122.6,39.94,-0.205,0.063,1.106,0,3.12,8.75,15.13
1264,99.720,53.3116229,-0.0598703,122.6,39.91,-0.214,0.060,1.095,0,2.82,9.02,15.22
1265,99.800,53.3116351,-0.0598629,122.7,40.24,-0.217,0.061,1.102,0,2.08,8.43,14.93
1266,99.880,53.3116476,-0.0598559,122.7,40.81,-0.206,0.059,1.112,0,1.88,8.46,15.06
1267,99.960,53.3116601,-0.0598493,122.7,40.88,-0.203,0.059,1.129,0,1.16,8.85,14.96
1268,100.040,53.3116728,-0.0598434,122.7,41.22,-0.209,0.063,1.136,0,1.01,9.67,15.24
1269,100.120,53.3116858,-0.0598377,122.8,41.74,-0.202,0.063,1.153,0,0.20,9.30,15.03
1270,100.240,53.3117056,-0.0598301,122.8,42.44,-0.210,0.065,1.142,0,-0.36,9.11,15.00
1271,100.320,53.3117192,-0.0598254,122.8,42.98,-0.229,0.068,1.116,0,-1.52,9.52,14.50
1272,100.400,53.3117328,-0.0598215,122.8,42.73,-0.218,0.065,1.149,0,-2.49,10.50,14.37
1273,100.480,53.3117464,-0.0598179,122.9,43.12,-0.213,0.057,1.188,0,-4.60,10.45,13.81
1274,100.560,53.3117603,-0.0598147,122.9,43.50,-0.228,0.054,1.151,0,-6.28,9.69,13.63
1275,100.640,53.3117742,-0.0598120,123.0,43.45,-0.211,0.035,1.142,0,-8.06,9.06,13.08
1276,100.720,53.3117882,-0.0598095,123.1,43.91,-0.195,0.029,1.166,0,-9.56,8.05,12.84
1277,100.800,53.3118023,-0.0598082,123.1,44.08,-0.206,0.040,1.123,0,-11.62,6.60,12.56
1278,100.880,53.3118166,-0.0598070,123.1,44.69,-0.217,0.061,1.076,0,-14.12,6.61,12.93
1279,100.960,53.3118310,-0.0598062,123.1,44.75,-0.219,0.083,1.075,0,-17.55,7.66,12.56
1280,101.040,53.3118456,-0.0598056,123.1,45.28,-0.228,0.090,1.074,0,-20.71,8.13,11.42
1281,101.120,53.3118601,-0.0598050,123.2,45.34,-0.236,0.099,1.048,0,-23.23,7.93,10.28
1282,101.200,53.3118748,-0.0598045,123.2,45.67,-0.223,0.120,1.052,0,-26.07,8.30,8.94
1283,101.280,53.3118896,-0.0598042,123.3,46.24,-0.200,0.148,1.068,0,-29.61,7.98,7.29
1284,101.360,53.3119045,-0.0598039,123.3,46.42,-0.181,0.169,1.074,0,-33.82,7.92,5.54
1285,101.440,53.3119193,-0.0598032,123.5,46.32,-0.176,0.180,1.059,0,-37.20,7.63,3.53
1286,101.520,53.3119342,-0.0598026,123.5,46.49,-0.169,0.177,1.052,0,-39.36,7.40,1.22
1287,101.600,53.3119494,-0.0598020,123.6,46.86,-0.169,0.153,1.034,0,-39.41,7.21,-0.78
1288,101.680,53.3119642,-0.0598013,123.7,46.60,-0.153,0.119,1.038,0,-37.12,7.02,-2.81
1289,101.760,53.3119792,-0.0598002,123.8,46.61,-0.121,0.082,1.066,0,-32.06,5.91,-4.86
1290,101.840,53.3119941,-0.0597992,123.9,46.51,-0.098,0.055,1.069,0,-26.47,4.88,-6.53
1291,101.880,53.3120017,-0.0597986,123.9,46.50,-0.049,0.033,1.107,0,-20.80,4.11,-7.61
1292,101.960,53.3120164,-0.0597973,124.0,46.16,-0.006,0.021,1.117,0,-15.74,2.39,-7.94
1293,102.040,53.3120312,-0.0597955,124.1,46.32,0.048,0.009,1.089,0,-12.48,1.08,-7.75
1294,102.120,53.3120458,-0.0597938,124.2,45.36,0.075,0.011,1.031,0,-11.01,0.20,-7.01
1295,102.240,53.3120675,-0.0597905,124.4,45.24,0.134,0.013,1.042,0,-10.50,0.11,-6.07
1296,102.320,53.3120816,-0.0597880,124.5,44.27,0.143,0.025,1.003,0,-10.66,0.13,-5.57
1297,102.400,53.3120959,-0.0597858,124.5,44.40,0.167,0.025,1.001,0,-11.92,0.16,-6.49
1298,102.480,53.3121097,-0.0597828,124.6,43.61,0.164,0.026,1.028,0,-11.64,1.03,-7.57
1299,102.560,53.3121234,-0.0597795,124.7,43.04,0.164,0.029,1.056,0,-10.88,2.07,-8.66
1300,102.640,53.3121370,-0.0597756,124.8,42.92,0.148,0.028,1.043,0,-9.59,3.24,-9.65
1301,102.720,53.3121503,-0.0597719,124.9,42.35,0.151,0.024,1.087,0,-8.64,4.20,-10.82
1302,102.800,53.3121636,-0.0597680,125.0,42.24,0.138,0.022,1.113,0,-6.52,5.47,-10.92
1303,102.880,53.3121766,-0.0597635,125.1,41.38,0.129,0.024,1.136,0,-4.69,6.18,-11.00
1304,102.960,53.3121894,-0.0597586,125.2,40.84,0.121,0.017,1.138,0,-2.73,6.07,-11.37
1305,103.040,53.3122021,-0.0597535,125.3,40.71,0.113,0.015,1.140,0,-0.53,4.79,-11.86
1306,103.120,53.3122147,-0.0597481,125.4,40.53,0.084,0.006,1.107,0,3.86,3.52,-12.29
1307,103.240,53.3122333,-0.0597397,125.5,39.64,0.040,0.005,1.028,0,8.48,2.12,-12.54
1308,103.320,53.3122456,-0.0597339,125.6,40.06,0.000,0.005,0.977,0,13.60,0.95,-12.27
1309,103.400,53.3122579,-0.0597280,125.7,39.77,-0.035,0.007,0.942,0,18.43,-0.50,-12.05
1310,103.480,53.3122702,-0.0597218,125.7,40.24,-0.069,0.007,0.894,0,22.68,-1.90,-11.49
1311,103.560,53.3122824,-0.0597157,125.7,40.03,-0.100,0.008,0.839,0,25.67,-3.25,-10.16
1312,103.640,53.3122947,-0.0597092,125.7,40.20,-0.105,0.007,0.834,0,27.37,-5.09,-8.56
1313,103.720,53.3123069,-0.0597027,125.7,39.97,-0.114,0.009,0.812,0,27.50,-6.36,-6.74
1314,103.800,53.3123191,-0.0596960,125.7,40.39,-0.105,0.018,0.811,0,26.19,-7.20,-4.79
1315,103.880,53.3123313,-0.0596892,125.8,40.20,-0.099,0.027,0.822,0,24.07,-7.77,-3.05
1316,103.960,53.3123437,-0.0596824,125.7,40.84,-0.095,0.038,0.808,0,21.54,-8.52,-2.00
1317,104.040,53.3123560,-0.0596754,125.7,40.84,-0.097,0.043,0.790,0,19.59,-8.42,-1.55
1318,104.120,53.3123683,-0.0596682,125.7,40.67,-0.097,0.038,0.771,0,18.73,-8.40,-1.12
1319,104.240,53.3123868,-0.0596574,125.7,40.82,-0.078,0.039,0.789,0,18.20,-8.46,-0.35
1320,104.320,53.3123993,-0.0596504,125.5,41.23,-0.005,0.037,0.814,0,17.85,-8.89,0.60
1321,104.400,53.3124116,-0.0596438,125.4,40.33,0.074,0.036,0.869,0,17.48,-8.30,2.07
1322,104.480,53.3124238,-0.0596373,125.3,39.92,0.110,0.038,0.921,0,15.87,-7.24,3.43
1323,104.560,53.3124360,-0.0596306,125.3,40.16,0.149,0.045,0.969,0,13.56,-5.56,4.23
1324,104.640,53.3124483,-0.0596245,125.2,40.09,0.174,0.047,0.987,0,11.20,-4.06,4.42
1325,104.720,53.3124606,-0.0596183,125.1,39.79,0.161,0.049,0.981,0,9.65,-2.65,4.37
1326,104.800,53.3124728,-0.0596122,125.0,39.13,0.143,0.050,0.987,0,8.52,-1.70,4.21
1327,104.880,53.3124848,-0.0596067,124.9,39.30,0.156,0.049,0.995,0,8.59,-1.13,4.34
1328,104.960,53.3124969,-0.0596012,124.8,39.22,0.159,0.049,1.009,0,8.19,-1.08,4.53
1329,105.040,53.3125090,-0.0595958,124.7,38.45,0.159,0.048,1.025,0,8.12,-0.46,5.05
1330,105.120,53.3125209,-0.0595908,124.7,37.93,0.161,0.053,1.052,0,7.80,0.17,5.75
1331,105.240,53.3125386,-0.0595838,124.6,37.65,0.159,0.058,1.062,0,7.54,1.12,6.35
1332,105.320,53.3125501,-0.0595794,124.4,37.23,0.176,0.059,1.077,0,6.37,1.07,6.51
1333,105.400,53.3125619,-0.0595754,124.4,37.29,0.190,0.063,1.062,0,6.07,1.29,7.01
1334,105.480,53.3125736,-0.0595714,124.3,36.66,0.197,0.073,1.059,0,5.57,1.53,7.81
1335,105.560,53.3125851,-0.0595678,124.2,36.25,0.207,0.078,1.080,0,4.19,1.97,8.52
1336,105.640,53.3125963,-0.0595645,124.1,35.50,0.204,0.087,1.049,0,2.51,1.73,9.03
1337,105.720,53.3126077,-0.0595613,124.1,35.81,0.197,0.094,1.022,0,0.93,1.17,9.43
1338,105.800,53.3126188,-0.0595582,124.0,34.59,0.204,0.096,1.051,0,-0.55,1.04,9.31
1339,105.880,53.3126298,-0.0595557,124.0,34.28,0.189,0.094,1.066,0,-1.32,1.49,8.62
1340,105.960,53.3126407,-0.0595534,123.9,34.30,0.181,0.090,1.068,0,-1.43,1.56,7.91
1341,106.040,53.3126516,-0.0595510,123.9,33.80,0.204,0.092,1.131,0,-1.95,1.95,7.14
1342,106.120,53.3126623,-0.0595490,123.8,33.06,0.195,0.101,1.157,0,-1.65,2.66,6.54
1343,106.240,53.3126780,-0.0595465,123.7,32.71,0.183,0.108,1.128,0,-1.66,2.26,5.98
1344,106.320,53.3126883,-0.0595451,123.7,32.16,0.195,0.113,1.076,0,-0.97,0.85,5.90
1345,106.400,53.3126986,-0.0595439,123.6,31.83,0.217,0.107,1.059,0,-0.10,-0.21,5.64
1346,106.480,53.3127086,-0.0595429,123.5,31.24,0.220,0.094,1.045,0,2.14,0.08,6.01
1347,106.560,53.3127185,-0.0595422,123.5,30.96,0.231,0.086,1.041,0,3.32,0.63,6.44
1348,106.640,53.3127284,-0.0595417,123.4,31.07,0.250,0.078,1.058,0,3.75,1.07,7.29
1349,106.720,53.3127384,-0.0595415,123.3,30.48,0.256,0.077,1.103,0,2.88,2.24,8.25
1350,106.800,53.3127480,-0.0595416,123.3,29.97,0.219,0.104,1.116,0,2.29,3.76,9.59
1351,106.880,53.3127576,-0.0595417,123.2,29.68,0.164,0.132,1.125,0,0.17,3.49,10.38
1352,106.960,53.3127671,-0.0595420,123.1,29.46,0.123,0.148,1.159,0,-1.93,3.28,10.68
1353,107.040,53.3127764,-0.0595425,123.1,28.53,0.076,0.170,1.186,0,-3.46,3.52,10.57
1354,107.120,53.3127856,-0.0595435,123.0,28.68,0.043,0.177,1.217,0,-4.79,3.61,10.33
1355,107.240,53.3127993,-0.0595452,123.0,28.28,0.049,0.162,1.215,0,-6.59,3.89,10.04
1356,107.320,53.3128081,-0.0595463,122.9,27.65,0.044,0.157,1.205,0,-7.86,4.26,9.95
1357,107.400,53.3128170,-0.0595474,122.9,27.70,0.035,0.158,1.193,0,-9.47,3.65,9.93
1358,107.480,53.3128259,-0.0595489,122.8,27.63,0.052,0.145,1.177,0,-10.94,3.03,9.94
1359,107.560,53.3128346,-0.0595505,122.7,27.18,0.033,0.154,1.161,0,-11.64,2.97,10.25
1360,107.640,53.3128432,-0.0595524,122.7,27.15,-0.004,0.174,1.178,0,-13.40,2.69,10.24
1361,107.720,53.3128518,-0.0595540,122.6,26.83,0.002,0.181,1.168,0,-16.82,2.55,9.60
1362,107.800,53.3128602,-0.0595555,122.6,26.13,-0.007,0.182,1.156,0,-20.22,2.58,8.60
1363,107.880,53.3128685,-0.0595571,122.6,26.02,-0.009,0.177,1.133,0,-23.88,2.57,7.24
1364,107.960,53.3128766,-0.0595587,122.6,25.87,-0.014,0.175,1.133,0,-27.66,3.07,5.55
1365,108.040,53.3128850,-0.0595602,122.5,26.20,-0.036,0.182,1.126,0,-30.27,3.89,4.01
1366,108.120,53.3128933,-0.0595614,122.5,26.04,-0.084,0.201,1.148,0,-30.94,4.49,2.72
1367,108.200,53.3129016,-0.0595624,122.5,26.10,-0.091,0.220,1.161,0,-31.32,5.63,1.04
1368,108.280,53.3129098,-0.0595631,122.4,25.26,-0.139,0.239,1.202,0,-31.91,5.88,-1.66
1369,108.360,53.3129180,-0.0595634,122.4,25.58,-0.141,0.246,1.207,0,-31.24,5.32,-4.87
1370,108.440,53.3129262,-0.0595636,122.3,25.26,-0.139,0.227,1.222,0,-30.06,5.52,-8.65
1371,108.520,53.3129342,-0.0595633,122.2,25.06,-0.095,0.202,1.208,0,-28.92,7.22,-13.24
1372,108.600,53.3129421,-0.0595625,122.2,24.78,-0.102,0.190,1.240,0,-26.74,8.19,-16.97
1373,108.680,53.3129501,-0.0595613,122.1,24.77,-0.098,0.176,1.250,0,-24.05,8.76,-19.68
1374,108.720,53.3129540,-0.0595606,122.1,24.87,-0.097,0.167,1.256,0,-21.78,9.73,-21.68
1375,108.800,53.3129619,-0.0595588,122.0,24.52,-0.059,0.165,1.262,0,-18.98,10.23,-22.61
1376,108.880,53.3129695,-0.0595565,122.0,23.97,-0.089,0.158,1.293,0,-16.70,9.72,-23.07
1377,108.960,53.3129772,-0.0595536,121.9,24.92,-0.091,0.150,1.279,0,-15.23,8.86,-23.58
1378,109.040,53.3129848,-0.0595504,121.8,24.58,-0.073,0.146,1.277,0,-13.26,9.34,-24.07
1379,109.120,53.3129922,-0.0595468,121.8,23.99,-0.082,0.141,1.290,0,-11.89,9.80,-24.90
1380,109.200,53.3129995,-0.0595422,121.7,24.19,-0.109,0.143,1.295,0,-10.75,10.58,-25.94
1381,109.280,53.3130067,-0.0595373,121.6,23.79,-0.074,0.130,1.296,0,-8.46,12.16,-26.58
1382,109.360,53.3130136,-0.0595321,121.6,23.84,-0.037,0.116,1.295,0,-5.97,14.11,-27.68
1383,109.440,53.3130204,-0.0595264,121.5,23.60,-0.029,0.100,1.305,0,-4.37,15.72,-28.99
1384,109.520,53.3130270,-0.0595201,121.5,23.43,0.004,0.075,1.290,0,-2.10,16.56,-29.67
1385,109.600,53.3130333,-0.0595134,121.4,23.27,0.025,0.054,1.264,0,0.99,16.54,-29.90
1386,109.680,53.3130396,-0.0595063,121.3,23.81,0.015,0.053,1.258,0,3.59,16.79,-30.26
1387,109.720,53.3130426,-0.0595025,121.3,23.36,0.002,0.052,1.267,0,6.20,16.97,-30.36
1388,109.800,53.3130482,-0.0594947,121.2,23.30,-0.018,0.051,1.260,0,9.97,15.96,-29.82
1389,109.880,53.3130540,-0.0594863,121.1,23.69,-0.047,0.050,1.251,0,13.10,14.96,-29.64
1390,109.960,53.3130595,-0.0594776,121.0,23.58,-0.066,0.039,1.253,0,16.19,15.02,-29.36
1391,110.040,53.3130648,-0.0594687,121.0,23.48,-0.081,0.032,1.233,0,18.79,14.19,-28.27
1392,110.120,53.3130700,-0.0594592,120.9,24.00,-0.069,0.021,1.170,0,18.61,12.19,-25.11
1393,110.200,53.3130753,-0.0594498,120.8,23.74,-0.044,0.024,1.108,0,15.71,10.42,-20.88
1394,110.280,53.3130803,-0.0594399,120.8,24.17,-0.005,0.038,1.106,0,9.14,8.62,-16.77
1395,110.360,53.3130852,-0.0594298,120.7,24.29,0.022,0.061,1.125,0,0.55,8.29,-13.36
1396,110.440,53.3130896,-0.0594192,120.6,23.75,-0.016,0.097,1.127,0,-8.01,10.06,-11.32
1397,110.520,53.3130940,-0.0594083,120.6,24.44,-0.051,0.133,1.175,0,-15.59,11.92,-11.97
1398,110.600,53.3130981,-0.0593972,120.5,24.37,-0.032,0.145,1.227,0,-20.93,14.43,-14.89
1399,110.680,53.3131019,-0.0593857,120.5,24.14,-0.039,0.119,1.266,0,-21.98,18.65,-19.58
1400,110.760,53.3131052,-0.0593739,120.5,24.24,-0.064,0.087,1.270,0,-19.35,22.35,-24.69
1401,110.840,53.3131083,-0.0593618,120.4,24.40,-0.056,0.065,1.283,0,-15.24,23.21,-28.54
1402,110.920,53.3131112,-0.0593494,120.4,24.43,-0.051,0.050,1.301,0,-10.41,23.30,-30.36
1403,111.000,53.3131137,-0.0593369,120.4,24.41,-0.073,0.041,1.293,0,-6.58,22.55,-31.13
1404,111.080,53.3131156,-0.0593241,120.3,24.63,-0.130,0.074,1.296,0,-3.19,21.00,-30.65
1405,111.160,53.3131173,-0.0593108,120.3,25.19,-0.178,0.107,1.314,0,-1.12,18.46,-29.49
1406,111.240,53.3131186,-0.0592973,120.2,25.42,-0.220,0.128,1.315,0,0.74,17.07,-28.75
1407,111.320,53.3131198,-0.0592836,120.2,25.79,-0.301,0.130,1.284,0,2.20,16.47,-28.03
1408,111.400,53.3131206,-0.0592694,120.2,26.69,-0.377,0.129,1.240,0,4.30,16.41,-26.38
1409,111.480,53.3131211,-0.0592549,120.1,27.13,-0.410,0.106,1.201,0,6.14,15.96,-25.33
1410,111.560,53.3131210,-0.0592399,120.1,27.92,-0.416,0.081,1.163,0,7.73,15.29,-24.38
1411,111.640,53.3131210,-0.0592246,120.0,28.42,-0.430,0.052,1.143,0,8.96,14.64,-23.51
1412,111.680,53.3131210,-0.0592168,120.0,28.91,-0.433,0.031,1.135,0,10.43,13.78,-23.24
1413,111.760,53.3131205,-0.0592008,120.0,29.74,-0.444,0.020,1.137,0,12.01,12.47,-23.16
1414,111.840,53.3131195,-0.0591846,119.9,30.29,-0.458,0.022,1.133,0,13.54,11.17,-22.56
1415,111.920,53.3131185,-0.0591680,119.9,31.27,-0.507,0.029,1.127,0,15.61,10.46,-21.81
1416,112.000,53.3131169,-0.0591510,119.8,32.14,-0.553,0.037,1.117,0,18.21,9.11,-20.79
1417,112.080,53.3131152,-0.0591333,119.7,33.32,-0.580,0.051,1.101,0,21.38,7.78,-19.02
1418,112.160,53.3131132,-0.0591154,119.7,34.14,-0.595,0.066,1.088,0,23.85,6.04,-17.19
1419,112.240,53.3131110,-0.0590967,119.6,35.21,-0.619,0.067,1.051,0,25.87,4.40,-15.30
1420,112.320,53.3131086,-0.0590781,119.5,35.40,-0.627,0.065,1.013,0,27.70,2.89,-13.18
1421,112.400,53.3131064,-0.0590584,119.5,37.61,-0.619,0.062,0.979,0,28.80,1.24,-11.29
1422,112.480,53.3131036,-0.0590386,119.4,37.88,-0.606,0.054,0.984,0,29.43,-0.33,-9.74
1423,112.560,53.3131007,-0.0590184,119.3,39.12,-0.599,0.049,1.007,0,29.31,-1.20,-8.43
1424,112.640,53.3130977,-0.0589974,119.3,40.37,-0.604,0.050,1.004,0,28.65,-1.33,-6.60
1425,112.720,53.3130950,-0.0589759,119.2,40.88,-0.600,0.060,1.023,0,26.51,-1.17,-4.61
1426,112.800,53.3130916,-0.0589540,119.1,42.12,-0.608,0.071,1.015,0,23.28,-0.35,-2.62
1427,112.880,53.3130883,-0.0589313,119.1,43.68,-0.600,0.089,0.992,0,18.18,-0.53,-1.38
1428,112.960,53.3130850,-0.0589082,119.0,44.34,-0.593,0.103,0.977,0,13.55,-0.64,-0.53
1429,113.040,53.3130816,-0.0588848,118.9,44.96,-0.590,0.110,0.975,0,10.11,-0.62,-0.34
1430,113.120,53.3130776,-0.0588609,118.8,46.46,-0.600,0.121,0.975,0,8.07,-0.95,-0.99
1431,113.200,53.3130740,-0.0588362,118.8,47.47,-0.601,0.119,0.990,0,7.73,-1.28,-1.59
1432,113.280,53.3130699,-0.0588111,118.7,48.60,-0.612,0.116,0.993,0,8.91,-0.99,-1.68
1433,113.360,53.3130655,-0.0587858,118.6,49.22,-0.622,0.112,1.000,0,9.84,-0.41,-1.64
1434,113.440,53.3130613,-0.0587596,118.5,50.44,-0.611,0.112,1.030,0,9.37,-0.76,-1.90
1435,113.520,53.3130570,-0.0587330,118.4,51.37,-0.587,0.103,1.030,0,8.95,-1.21,-1.42
1436,113.600,53.3130525,-0.0587059,118.4,52.57,-0.550,0.099,1.014,0,7.78,-2.04,-0.85
1437,113.680,53.3130486,-0.0586782,118.2,53.07,-0.433,0.085,1.010,0,6.10,-3.31,0.31
1438,113.760,53.3130447,-0.0586506,118.2,52.61,-0.241,0.074,1.018,0,3.67,-5.42,1.76
1439,113.840,53.3130403,-0.0586235,118.1,52.73,-0.074,0.069,0.982,0,1.04,-6.51,3.00
1440,113.920,53.3130363,-0.0585965,118.0,51.59,0.075,0.058,0.992,0,-1.68,-5.35,2.99
1441,114.000,53.3130324,-0.0585697,117.9,51.38,0.196,0.048,1.044,0,-3.61,-3.31,2.42
1442,114.080,53.3130285,-0.0585429,117.8,51.46,0.256,0.049,1.091,0,-5.66,-1.74,1.17
